Subject,Trial,trlsnov,img1,img1Prob,X1,img2,img2prob,X2,img3,img3prob,X3,chosen_img,chosenovel,chosebest,choseworst,cQb,cQe,cQt,cQsa,maxQt,novel_p,nominal_chosen_p,iev_dev,rel_iev_max,rel_iev_min,stim_ID,rewarded,SessChoice.RT,SessChoice.RESP
87184023,1,0.0,bin/iaps/157.jpg,8,246,bin/iaps/199.jpg,2,778,bin/iaps/144.jpg,5,512,bin/iaps/199.jpg,0.0,0.0,0.0,-4.6819504e-08,0.5,6.5472318,   7.0472318e+00,   6.5472319e+00,,   1.0000000e+00,0.3,0.0,0.0,24.0,False,1755,3.0
87184023,2,1.0,bin/iaps/157.jpg,8,512,bin/iaps/199.jpg,2,778,bin/iaps/144.jpg,5,246,bin/iaps/199.jpg,0.0,0.0,0.0,-0.029474959,0.33333333,6.1925951,   6.5259285e+00,   6.2368076e+00,,   1.0000000e+00,0.13333333,-0.16666667,-0.16666667,24.0,True,1556,3.0
87184023,3,2.0,bin/iaps/157.jpg,8,246,bin/iaps/199.jpg,2,512,bin/iaps/144.jpg,5,778,bin/iaps/199.jpg,0.0,0.0,0.0,-0.032298319,0.5,6.4830493,   6.9830493e+00,   6.5314969e+00,,   1.0000000e+00,0.3,0.0,0.0,24.0,False,912,2.0
87184023,4,3.0,bin/iaps/157.jpg,8,512,bin/iaps/199.jpg,2,778,bin/iaps/144.jpg,5,246,bin/iaps/157.jpg,0.0,0.0,0.0,0.021052526,0.5,6.3282059,   6.8282059e+00,   6.3282059e+00,,   3.0000000e+00,-0.3,0.0,0.1,19.0,True,1847,2.0
87184023,5,4.0,bin/iaps/157.jpg,8,512,bin/iaps/199.jpg,2,778,bin/iaps/144.jpg,5,246,bin/iaps/157.jpg,0.0,0.0,0.0,0.00041768865,0.66666667,6.8005199,   7.4671866e+00,   6.8231206e+00,,   3.0000000e+00,-0.13333333,0.16666667,0.26666667,19.0,False,890,2.0
87184023,6,0.0,bin/iaps/185.jpg,2,512,bin/iaps/199.jpg,2,778,bin/iaps/144.jpg,5,246,bin/iaps/144.jpg,0.0,1.0,0.0,0.021052469,0.5,6.3282059,   6.8282059e+00,   6.3282059e+00,5.0,   2.0000000e+00,0.0,0.0,0.1,18.0,True,1091,1.0
87184023,7,1.0,bin/iaps/185.jpg,2,778,bin/iaps/199.jpg,2,246,bin/iaps/144.jpg,5,512,bin/iaps/144.jpg,0.0,1.0,0.0,0.00041768261,0.66666667,6.8005187,   7.4671854e+00,   6.8231195e+00,5.0,   2.0000000e+00,0.16666667,0.16666667,0.26666667,18.0,False,1603,2.0
87184023,8,2.0,bin/iaps/185.jpg,2,778,bin/iaps/199.jpg,2,246,bin/iaps/144.jpg,5,512,bin/iaps/185.jpg,1.0,0.0,0.0,0.039194564,0.5,6.3109237,   6.8109237e+00,   6.3109237e+00,2.0,   1.0000000e+00,0.3,0.0,0.1,23.0,False,974,3.0
87184023,9,3.0,bin/iaps/185.jpg,2,246,bin/iaps/199.jpg,2,778,bin/iaps/144.jpg,5,512,,0.0,0.0,0.0,,,,             NaN,             NaN,,             NaN,,,,,,0,
87184023,10,4.0,bin/iaps/185.jpg,2,512,bin/iaps/199.jpg,2,246,bin/iaps/144.jpg,5,778,bin/iaps/185.jpg,1.0,0.0,0.0,0.01138494,0.33333333,5.9042663,   6.2375997e+00,   5.9042663e+00,2.0,   1.0000000e+00,0.13333333,-0.16666667,-0.066666667,23.0,False,1003,2.0
87184023,11,5.0,bin/iaps/185.jpg,2,512,bin/iaps/199.jpg,2,246,bin/iaps/144.jpg,5,778,bin/iaps/144.jpg,0.0,1.0,0.0,0.0057793372,0.5,5.7723635,   6.2723635e+00,   5.7723635e+00,5.0,   2.0000000e+00,0.0,0.1,0.25,18.0,False,1229,3.0
87184023,12,0.0,bin/iaps/185.jpg,2,512,bin/iaps/36.jpg,2,778,bin/iaps/144.jpg,5,246,bin/iaps/36.jpg,1.0,0.0,0.0,0.045883196,0.5,5.852593,   6.3525930e+00,   5.8525930e+00,2.0,   1.0000000e+00,0.3,0.1,0.25,5.0,False,1604,3.0
87184023,13,1.0,bin/iaps/185.jpg,2,512,bin/iaps/36.jpg,2,778,bin/iaps/144.jpg,5,246,bin/iaps/144.jpg,0.0,1.0,0.0,-0.010142216,0.4,5.3223268,   5.7223268e+00,   5.3475356e+00,2.0,   2.0000000e+00,-0.1,0.066666667,0.15,18.0,False,753,1.0
87184023,14,2.0,bin/iaps/185.jpg,2,778,bin/iaps/36.jpg,2,512,bin/iaps/144.jpg,5,246,bin/iaps/185.jpg,0.0,0.0,1.0,-0.0029092489,0.25,5.1565701,   5.4065701e+00,   5.1771966e+00,2.0,   1.0000000e+00,0.05,-0.083333333,-0.083333333,23.0,False,1915,3.0
87184023,15,3.0,bin/iaps/185.jpg,2,512,bin/iaps/36.jpg,2,778,bin/iaps/144.jpg,5,246,bin/iaps/144.jpg,0.0,1.0,0.0,-0.011596057,0.33333333,5.0729116,   5.4062449e+00,   5.1050917e+00,2.0,   2.0000000e+00,-0.16666667,0.0,0.13333333,18.0,True,560,1.0
87184023,16,4.0,bin/iaps/185.jpg,2,512,bin/iaps/36.jpg,2,246,bin/iaps/144.jpg,5,778,bin/iaps/144.jpg,0.0,1.0,0.0,-0.013603393,0.42857143,5.3102934,   5.7388648e+00,   5.3448554e+00,2.0,   2.0000000e+00,-0.071428571,0.095238095,0.22857143,18.0,True,651,3.0
87184023,17,5.0,bin/iaps/185.jpg,2,246,bin/iaps/36.jpg,2,778,bin/iaps/144.jpg,5,512,bin/iaps/144.jpg,0.0,1.0,0.0,-0.014979453,0.5,5.5252506,   6.0252506e+00,   5.5609621e+00,2.0,   2.0000000e+00,0.0,0.16666667,0.3,18.0,False,659,2.0
87184023,18,6.0,bin/iaps/185.jpg,2,512,bin/iaps/36.jpg,2,778,bin/iaps/144.jpg,5,246,bin/iaps/36.jpg,1.0,0.0,0.0,0.022442528,0.33333333,5.3738815,   5.7072148e+00,   5.3738815e+00,2.0,   1.0000000e+00,0.13333333,-0.11111111,0.13333333,5.0,False,1976,3.0
87184023,19,0.0,bin/iaps/185.jpg,2,246,bin/iaps/130.jpg,5,512,bin/iaps/144.jpg,5,778,bin/iaps/144.jpg,0.0,1.0,0.0,-0.030901814,0.44444444,5.7950099,   6.2394544e+00,   5.8775020e+00,5.0,   2.0000000e+00,-0.055555556,-0.055555556,0.24444444,18.0,True,1018,3.0
87184023,20,1.0,bin/iaps/185.jpg,2,512,bin/iaps/130.jpg,5,246,bin/iaps/144.jpg,5,778,bin/iaps/144.jpg,0.0,1.0,0.0,-0.03072191,0.5,5.9387735,   6.4387735e+00,   6.0191866e+00,5.0,   2.0000000e+00,0.0,0.0,0.3,18.0,True,1288,3.0
87184023,21,2.0,bin/iaps/185.jpg,2,512,bin/iaps/130.jpg,5,246,bin/iaps/144.jpg,5,778,bin/iaps/144.jpg,0.0,1.0,0.0,-0.030215636,0.54545455,6.0684069,   6.6138614e+00,   6.1461694e+00,5.0,   2.0000000e+00,0.045454545,0.045454545,0.34545455,18.0,True,839,3.0
87184023,22,3.0,bin/iaps/185.jpg,2,778,bin/iaps/130.jpg,5,512,bin/iaps/144.jpg,5,246,bin/iaps/144.jpg,0.0,1.0,0.0,-0.029526072,0.58333333,6.184282,   6.7676153e+00,   6.2591571e+00,5.0,   2.0000000e+00,0.083333333,0.083333333,0.38333333,18.0,False,635,1.0
87184023,23,4.0,bin/iaps/185.jpg,2,246,bin/iaps/130.jpg,5,778,bin/iaps/144.jpg,5,512,,0.0,0.0,0.0,,,,             NaN,             NaN,,             NaN,,,,,,0,
87184023,24,5.0,bin/iaps/185.jpg,2,512,bin/iaps/130.jpg,5,246,bin/iaps/144.jpg,5,778,bin/iaps/185.jpg,0.0,0.0,1.0,-0.017317353,0.2,6.040641,   6.2406410e+00,   6.1067687e+00,5.0,   1.0000000e+00,1.6653345e-16,-0.33846154,-0.3,23.0,False,1369,2.0
87184023,25,0.0,bin/iaps/185.jpg,2,512,bin/iaps/130.jpg,5,246,bin/iaps/274.jpg,8,778,bin/iaps/274.jpg,1.0,0.0,0.0,0.022864871,0.5,6.0682384,   6.5682384e+00,   6.0682384e+00,8.0,   3.0000000e+00,-0.3,0.0,0.33333333,33.0,True,1526,3.0
87184023,26,1.0,bin/iaps/185.jpg,2,512,bin/iaps/130.jpg,5,778,bin/iaps/274.jpg,8,246,bin/iaps/274.jpg,1.0,0.0,0.0,0.001237958,0.66666667,6.6121085,   7.2787751e+00,   6.6346812e+00,8.0,   3.0000000e+00,-0.13333333,0.16666667,0.5,33.0,True,655,1.0
87184023,27,2.0,bin/iaps/185.jpg,2,246,bin/iaps/130.jpg,5,778,bin/iaps/274.jpg,8,512,bin/iaps/274.jpg,1.0,0.0,0.0,-0.0067803103,0.75,6.9426789,   7.6926789e+00,   6.9703110e+00,8.0,   3.0000000e+00,-0.05,0.25,0.58333333,33.0,True,633,2.0
87184023,28,3.0,bin/iaps/185.jpg,2,512,bin/iaps/130.jpg,5,246,bin/iaps/274.jpg,8,778,bin/iaps/274.jpg,1.0,0.0,0.0,-0.0095357758,0.8,7.1590837,   7.9590837e+00,   7.1860554e+00,8.0,   3.0000000e+00,-2.220446e-16,0.3,0.63333333,33.0,True,988,3.0
87184023,29,4.0,bin/iaps/185.jpg,2,512,bin/iaps/130.jpg,5,778,bin/iaps/274.jpg,8,246,bin/iaps/274.jpg,1.0,0.0,0.0,-0.010336635,0.83333333,7.3094115,   8.1427448e+00,   7.3341596e+00,8.0,   3.0000000e+00,0.033333333,0.33333333,0.66666667,33.0,True,821,1.0
87184023,30,5.0,bin/iaps/185.jpg,2,246,bin/iaps/130.jpg,5,778,bin/iaps/274.jpg,8,512,bin/iaps/274.jpg,1.0,0.0,0.0,-0.010381761,0.85714286,7.4184779,   8.2756208e+00,   7.4407539e+00,8.0,   3.0000000e+00,0.057142857,0.35714286,0.69047619,33.0,True,618,2.0
87184023,31,0.0,bin/iaps/283.jpg,5,778,bin/iaps/130.jpg,5,246,bin/iaps/274.jpg,8,512,bin/iaps/274.jpg,0.0,1.0,0.0,-0.0079350843,0.875,7.6701898,   8.5451898e+00,   7.6820925e+00,8.0,   3.0000000e+00,0.075,0.375,0.375,33.0,True,636,2.0
87184023,32,1.0,bin/iaps/283.jpg,5,778,bin/iaps/130.jpg,5,512,bin/iaps/274.jpg,8,246,bin/iaps/274.jpg,0.0,1.0,0.0,-0.0064965891,0.88888889,7.720567,   8.6094559e+00,   7.7303119e+00,8.0,   3.0000000e+00,0.088888889,0.38888889,0.38888889,33.0,True,592,1.0
87184023,33,2.0,bin/iaps/283.jpg,5,778,bin/iaps/130.jpg,5,246,bin/iaps/274.jpg,8,512,bin/iaps/274.jpg,0.0,1.0,0.0,-0.0052711824,0.9,7.7597646,   8.6597646e+00,   7.7676714e+00,8.0,   3.0000000e+00,0.1,0.4,0.4,33.0,False,540,2.0
87184023,34,3.0,bin/iaps/283.jpg,5,246,bin/iaps/130.jpg,5,778,bin/iaps/274.jpg,8,512,bin/iaps/283.jpg,1.0,0.0,0.0,0.0090321769,0.5,7.4274553,   7.9274553e+00,   7.4274553e+00,5.0,   2.0000000e+00,0.0,-0.31818182,0.0,36.0,False,1267,1.0
87184023,35,4.0,bin/iaps/283.jpg,5,512,bin/iaps/130.jpg,5,246,bin/iaps/274.jpg,8,778,bin/iaps/130.jpg,0.0,0.0,1.0,0.018640931,0.5,7.2934749,   7.7934749e+00,   7.2934749e+00,5.0,   2.0000000e+00,0.0,-0.31818182,0.16666667,16.0,True,1784,1.0
87184023,36,5.0,bin/iaps/283.jpg,5,246,bin/iaps/130.jpg,5,778,bin/iaps/274.jpg,8,512,bin/iaps/283.jpg,1.0,0.0,0.0,-0.00070121481,0.33333333,7.5352678,   7.8686011e+00,   7.5450572e+00,5.0,   2.0000000e+00,-0.16666667,-0.48484848,-0.33333333,36.0,True,1388,1.0
87184023,37,6.0,bin/iaps/283.jpg,5,246,bin/iaps/130.jpg,5,778,bin/iaps/274.jpg,8,512,bin/iaps/283.jpg,1.0,0.0,0.0,-0.001371474,0.5,7.5821582,   8.0821582e+00,   7.5907561e+00,5.0,   2.0000000e+00,-8.8817842e-16,-0.31818182,-0.16666667,36.0,False,998,1.0
87184023,38,7.0,bin/iaps/283.jpg,5,778,bin/iaps/130.jpg,5,246,bin/iaps/274.jpg,8,512,bin/iaps/283.jpg,1.0,0.0,0.0,-0.0016161114,0.4,7.5499694,   7.9499694e+00,   7.5607309e+00,5.0,   2.0000000e+00,-0.1,-0.41818182,-0.26666667,36.0,True,1124,3.0
87184023,39,8.0,bin/iaps/283.jpg,5,512,bin/iaps/130.jpg,5,246,bin/iaps/274.jpg,8,778,bin/iaps/283.jpg,1.0,0.0,0.0,-0.0017015854,0.5,7.5751779,   8.0751779e+00,   7.5844345e+00,5.0,   2.0000000e+00,-8.8817842e-16,-0.31818182,-0.16666667,36.0,True,1571,2.0
87184023,40,0.0,bin/iaps/283.jpg,5,778,bin/iaps/130.jpg,5,246,bin/iaps/262.jpg,8,512,bin/iaps/283.jpg,0.0,0.0,1.0,-0.021788338,0.57142857,7.0292332,   7.6006618e+00,   7.0695441e+00,8.0,   2.0000000e+00,0.071428571,-0.095238095,0.071428571,36.0,True,1117,3.0
87184023,1,0.0,bin/iaps/218.jpg,8,778,bin/iaps/48.jpg,2,246,bin/iaps/116.jpg,5,512,bin/iaps/218.jpg,0.0,1.0,0.0,5.599962e-08,0.5,6.5472319,   7.0472319e+00,   6.5472319e+00,5.0,   3.0000000e+00,-0.3,0.0,0.0,25.0,True,1797,3.0
87184023,2,1.0,bin/iaps/218.jpg,8,512,bin/iaps/48.jpg,2,246,bin/iaps/116.jpg,5,778,bin/iaps/218.jpg,0.0,1.0,0.0,-0.012243973,0.66666667,6.9628011,   7.6294678e+00,   6.9811671e+00,5.0,   3.0000000e+00,-0.13333333,0.16666667,0.16666667,25.0,False,656,2.0
87184023,3,2.0,bin/iaps/218.jpg,8,246,bin/iaps/48.jpg,2,512,bin/iaps/116.jpg,5,778,bin/iaps/48.jpg,0.0,1.0,0.0,0.016149111,0.5,6.5314967,   7.0314967e+00,   6.5314968e+00,5.0,   1.0000000e+00,0.3,0.0,0.0,6.0,False,834,2.0
87184023,4,3.0,bin/iaps/218.jpg,8,246,bin/iaps/48.jpg,2,778,bin/iaps/116.jpg,5,512,bin/iaps/116.jpg,1.0,0.0,0.0,0.033172898,0.5,6.2192451,   6.7192451e+00,   6.2192451e+00,5.0,   2.0000000e+00,0.0,0.0,0.16666667,14.0,True,969,2.0
87184023,5,4.0,bin/iaps/218.jpg,8,246,bin/iaps/48.jpg,2,512,bin/iaps/116.jpg,5,778,bin/iaps/116.jpg,1.0,0.0,0.0,0.0089533367,0.66666667,6.7191447,   7.3858114e+00,   6.7191447e+00,5.0,   2.0000000e+00,0.16666667,0.16666667,0.33333333,14.0,False,850,3.0
87184023,6,0.0,bin/iaps/228.jpg,2,246,bin/iaps/48.jpg,2,512,bin/iaps/116.jpg,5,778,bin/iaps/228.jpg,1.0,0.0,0.0,0.03317292,0.5,6.2192453,   6.7192453e+00,   6.2192453e+00,2.0,   1.0000000e+00,0.3,0.0,0.16666667,28.0,False,1152,1.0
87184023,7,1.0,bin/iaps/228.jpg,2,512,bin/iaps/48.jpg,2,246,bin/iaps/116.jpg,5,778,bin/iaps/48.jpg,0.0,0.0,1.0,0.0039267396,0.33333333,5.789081,   6.1224143e+00,   5.7890810e+00,2.0,   1.0000000e+00,0.13333333,-0.16666667,0.0,6.0,False,1290,1.0
87184023,8,2.0,bin/iaps/228.jpg,2,512,bin/iaps/48.jpg,2,246,bin/iaps/116.jpg,5,778,bin/iaps/228.jpg,1.0,0.0,0.0,0.01002308,0.33333333,5.658634,   5.9919673e+00,   5.6586340e+00,2.0,   1.0000000e+00,0.13333333,-0.16666667,0.083333333,28.0,False,1093,2.0
87184023,9,3.0,bin/iaps/228.jpg,2,778,bin/iaps/48.jpg,2,512,bin/iaps/116.jpg,5,246,bin/iaps/116.jpg,0.0,1.0,0.0,0.0042668863,0.5,5.5030377,   6.0030377e+00,   5.5030377e+00,5.0,   2.0000000e+00,0.0,0.25,0.25,14.0,False,1006,1.0
87184023,10,4.0,bin/iaps/228.jpg,2,512,bin/iaps/48.jpg,2,778,bin/iaps/116.jpg,5,246,bin/iaps/48.jpg,0.0,0.0,1.0,0.0017459831,0.25,5.167344,   5.4173440e+00,   5.1673440e+00,2.0,   1.0000000e+00,0.05,-0.15,0.0,6.0,True,1134,3.0
87184023,11,5.0,bin/iaps/228.jpg,2,778,bin/iaps/48.jpg,2,246,bin/iaps/116.jpg,5,512,bin/iaps/48.jpg,0.0,0.0,1.0,-0.0017213694,0.4,5.462183,   5.8621830e+00,   5.4673471e+00,2.0,   1.0000000e+00,0.2,0.0,0.15,6.0,False,978,1.0
87184023,12,0.0,bin/iaps/228.jpg,2,778,bin/iaps/226.jpg,5,246,bin/iaps/116.jpg,5,512,bin/iaps/116.jpg,0.0,1.0,0.0,-0.025396183,0.4,5.7813136,   6.1813136e+00,   5.8525930e+00,5.0,   2.0000000e+00,-0.1,-0.1,0.15,14.0,True,674,2.0
87184023,13,1.0,bin/iaps/228.jpg,2,246,bin/iaps/226.jpg,5,778,bin/iaps/116.jpg,5,512,bin/iaps/116.jpg,0.0,1.0,0.0,-0.02688461,0.5,6.0274242,   6.5274242e+00,   6.0983770e+00,5.0,   2.0000000e+00,0.0,0.0,0.25,14.0,False,580,2.0
87184023,14,2.0,bin/iaps/228.jpg,2,512,bin/iaps/226.jpg,5,246,bin/iaps/116.jpg,5,778,bin/iaps/226.jpg,1.0,0.0,0.0,0.048395785,0.5,5.9036799,   6.4036799e+00,   5.9036799e+00,5.0,   2.0000000e+00,0.0,0.071428571,0.25,27.0,True,1366,1.0
87184023,15,3.0,bin/iaps/228.jpg,2,512,bin/iaps/226.jpg,5,778,bin/iaps/116.jpg,5,246,bin/iaps/226.jpg,1.0,0.0,0.0,0.01841617,0.66666667,6.4740325,   7.1406991e+00,   6.4740325e+00,5.0,   2.0000000e+00,0.16666667,0.23809524,0.41666667,27.0,True,761,3.0
87184023,16,4.0,bin/iaps/228.jpg,2,246,bin/iaps/226.jpg,5,778,bin/iaps/116.jpg,5,512,bin/iaps/226.jpg,1.0,0.0,0.0,0.0053059504,0.75,6.8250776,   7.5750776e+00,   6.8250776e+00,5.0,   2.0000000e+00,0.25,0.32142857,0.5,27.0,False,952,3.0
87184023,17,5.0,bin/iaps/228.jpg,2,778,bin/iaps/226.jpg,5,246,bin/iaps/116.jpg,5,512,,0.0,0.0,0.0,,,,             NaN,             NaN,,             NaN,,,,,,0,
87184023,18,6.0,bin/iaps/228.jpg,2,246,bin/iaps/226.jpg,5,512,bin/iaps/116.jpg,5,778,,0.0,0.0,0.0,,,,             NaN,             NaN,,             NaN,,,,,,0,
87184023,19,7.0,bin/iaps/228.jpg,2,778,bin/iaps/226.jpg,5,246,bin/iaps/116.jpg,5,512,bin/iaps/116.jpg,0.0,1.0,0.0,-0.0069952867,0.42857143,6.1459814,   6.5745528e+00,   6.1583471e+00,5.0,   2.0000000e+00,-0.071428571,-0.17142857,0.17857143,14.0,False,1230,2.0
87184023,20,8.0,bin/iaps/228.jpg,2,512,bin/iaps/226.jpg,5,778,bin/iaps/116.jpg,5,246,bin/iaps/116.jpg,0.0,1.0,0.0,-0.0084281965,0.375,6.0300824,   6.4050824e+00,   6.0446452e+00,5.0,   2.0000000e+00,-0.125,-0.225,0.125,14.0,False,1041,1.0
87184023,21,0.0,bin/iaps/228.jpg,2,246,bin/iaps/226.jpg,5,778,bin/iaps/75.jpg,8,512,bin/iaps/75.jpg,1.0,0.0,0.0,0.036042108,0.5,6.420364,   6.9203640e+00,   6.4203640e+00,8.0,   3.0000000e+00,-0.3,-0.1,0.25,10.0,False,1439,2.0
87184023,22,1.0,bin/iaps/228.jpg,2,512,bin/iaps/226.jpg,5,246,bin/iaps/75.jpg,8,778,bin/iaps/226.jpg,0.0,1.0,0.0,-0.0077387532,0.6,5.9985293,   6.5985293e+00,   6.0179163e+00,8.0,   2.0000000e+00,0.1,0.26666667,0.35,27.0,False,978,1.0
87184023,23,2.0,bin/iaps/228.jpg,2,778,bin/iaps/226.jpg,5,246,bin/iaps/75.jpg,8,512,bin/iaps/228.jpg,0.0,0.0,1.0,-0.0025973774,0.25,5.6203634,   5.8703634e+00,   5.6387406e+00,8.0,   1.0000000e+00,0.05,-0.25,-0.083333333,28.0,True,674,3.0
87184023,24,3.0,bin/iaps/228.jpg,2,246,bin/iaps/226.jpg,5,778,bin/iaps/75.jpg,8,512,bin/iaps/228.jpg,0.0,0.0,1.0,-0.0057828223,0.4,5.8623062,   6.2623062e+00,   5.8851036e+00,8.0,   1.0000000e+00,0.2,-0.1,0.066666667,28.0,True,620,1.0
87184023,25,4.0,bin/iaps/228.jpg,2,778,bin/iaps/226.jpg,5,246,bin/iaps/75.jpg,8,512,bin/iaps/228.jpg,0.0,1.0,0.0,-0.0086738808,0.5,6.0945873,   6.5945873e+00,   6.1206089e+00,8.0,   1.0000000e+00,0.3,0.0,0.16666667,28.0,True,810,3.0
87184023,26,5.0,bin/iaps/228.jpg,2,778,bin/iaps/226.jpg,5,512,bin/iaps/75.jpg,8,246,bin/iaps/228.jpg,0.0,1.0,0.0,-0.010426971,0.57142857,6.2950851,   6.8665136e+00,   6.3225205e+00,8.0,   1.0000000e+00,0.37142857,0.071428571,0.23809524,28.0,False,828,3.0
87184023,27,6.0,bin/iaps/228.jpg,2,246,bin/iaps/226.jpg,5,512,bin/iaps/75.jpg,8,778,bin/iaps/226.jpg,0.0,1.0,0.0,-0.0066712387,0.5,6.0766333,   6.5766333e+00,   6.1028777e+00,8.0,   2.0000000e+00,0.0,0.0,0.16666667,27.0,True,948,2.0
87184023,28,0.0,bin/iaps/96.jpg,5,778,bin/iaps/226.jpg,5,512,bin/iaps/75.jpg,8,246,bin/iaps/226.jpg,0.0,1.0,0.0,-0.031643838,0.57142857,6.3298949,   6.9013235e+00,   6.3979122e+00,5.0,   2.0000000e+00,0.071428571,0.071428571,0.23809524,27.0,True,1150,2.0
87184023,29,1.0,bin/iaps/96.jpg,5,512,bin/iaps/226.jpg,5,778,bin/iaps/75.jpg,8,246,bin/iaps/226.jpg,0.0,1.0,0.0,-0.030580531,0.625,6.4966871,   7.1216871e+00,   6.5613121e+00,5.0,   2.0000000e+00,0.125,0.125,0.29166667,27.0,False,680,3.0
87184023,30,2.0,bin/iaps/96.jpg,5,512,bin/iaps/226.jpg,5,778,bin/iaps/75.jpg,8,246,bin/iaps/75.jpg,0.0,0.0,1.0,-0.0035019408,0.33333333,6.2894238,   6.6227571e+00,   6.3318729e+00,8.0,   3.0000000e+00,-0.46666667,-0.22222222,-0.16666667,10.0,True,535,1.0
87184023,31,3.0,bin/iaps/96.jpg,5,778,bin/iaps/226.jpg,5,512,bin/iaps/75.jpg,8,246,bin/iaps/75.jpg,0.0,0.0,1.0,-0.0088593502,0.5,6.5600203,   7.0600203e+00,   6.6062074e+00,8.0,   3.0000000e+00,-0.3,-0.055555556,0.0,10.0,True,488,1.0
87184023,32,4.0,bin/iaps/96.jpg,5,778,bin/iaps/226.jpg,5,512,bin/iaps/75.jpg,8,246,bin/iaps/75.jpg,0.0,1.0,0.0,-0.011582512,0.6,6.7843596,   7.3843596e+00,   6.8293740e+00,8.0,   3.0000000e+00,-0.2,0.044444444,0.1,10.0,True,683,1.0
87184023,33,5.0,bin/iaps/96.jpg,5,246,bin/iaps/226.jpg,5,778,bin/iaps/75.jpg,8,512,bin/iaps/75.jpg,0.0,1.0,0.0,-0.012346533,0.66666667,6.9595598,   7.6262264e+00,   7.0011256e+00,8.0,   3.0000000e+00,-0.13333333,0.11111111,0.16666667,10.0,False,1054,2.0
87184023,34,0.0,bin/iaps/96.jpg,5,512,bin/iaps/226.jpg,5,246,bin/iaps/275.jpg,2,778,bin/iaps/96.jpg,0.0,1.0,0.0,0.021710596,0.5,6.6218265,   7.1218265e+00,   6.6218265e+00,2.0,   2.0000000e+00,0.0,-0.055555556,0.0,12.0,False,1290,2.0
87184023,35,1.0,bin/iaps/96.jpg,5,246,bin/iaps/226.jpg,5,512,bin/iaps/275.jpg,2,778,bin/iaps/275.jpg,1.0,0.0,0.0,0.038947152,0.5,6.3318717,   6.8318717e+00,   6.3318717e+00,2.0,   1.0000000e+00,0.3,-0.055555556,0.16666667,34.0,False,752,3.0
87184023,36,2.0,bin/iaps/96.jpg,5,778,bin/iaps/226.jpg,5,246,bin/iaps/275.jpg,2,512,bin/iaps/226.jpg,0.0,1.0,0.0,-0.0240906,0.55555556,5.890001,   6.4455566e+00,   5.9261369e+00,2.0,   2.0000000e+00,0.055555556,0.22222222,0.22222222,27.0,False,1520,1.0
87184023,37,3.0,bin/iaps/96.jpg,5,512,bin/iaps/226.jpg,5,246,bin/iaps/275.jpg,2,778,bin/iaps/96.jpg,0.0,0.0,1.0,0.013179377,0.33333333,5.731595,   6.0649284e+00,   5.7315950e+00,2.0,   2.0000000e+00,-0.16666667,-0.16666667,0.0,12.0,False,1862,2.0
87184023,38,4.0,bin/iaps/96.jpg,5,246,bin/iaps/226.jpg,5,778,bin/iaps/275.jpg,2,512,,0.0,0.0,0.0,,,,             NaN,             NaN,,             NaN,,,,,,0,
87184023,39,5.0,bin/iaps/96.jpg,5,778,bin/iaps/226.jpg,5,512,bin/iaps/275.jpg,2,246,bin/iaps/275.jpg,1.0,0.0,0.0,0.019497582,0.33333333,5.5997933,   5.9331266e+00,   5.5997933e+00,2.0,   1.0000000e+00,0.13333333,-0.16666667,0.083333333,34.0,True,749,1.0
87184023,40,0.0,bin/iaps/96.jpg,5,778,bin/iaps/31.jpg,8,246,bin/iaps/275.jpg,2,512,bin/iaps/275.jpg,0.0,1.0,0.0,-0.016613403,0.5,6.0607797,   6.5607797e+00,   6.1160617e+00,8.0,   1.0000000e+00,0.3,0.0,0.25,34.0,False,597,2.0
87184023,1,0.0,bin/iaps/20.jpg,2,246,bin/iaps/179.jpg,8,512,bin/iaps/82.jpg,5,778,bin/iaps/179.jpg,1.0,0.0,0.0,-4.6819504e-08,0.5,6.5472318,   7.0472318e+00,   6.5472319e+00,8.0,   3.0000000e+00,-0.3,0.0,0.0,21.0,False,1102,2.0
87184023,2,1.0,bin/iaps/20.jpg,2,246,bin/iaps/179.jpg,8,512,bin/iaps/82.jpg,5,778,bin/iaps/20.jpg,0.0,1.0,0.0,0.014737506,0.5,6.2368076,   6.7368076e+00,   6.2368076e+00,8.0,   1.0000000e+00,0.3,0.0,0.16666667,3.0,False,848,1.0
87184023,3,2.0,bin/iaps/20.jpg,2,512,bin/iaps/179.jpg,8,778,bin/iaps/82.jpg,5,246,bin/iaps/82.jpg,0.0,1.0,0.0,0.032853712,0.5,5.8581194,   6.3581194e+00,   5.8581194e+00,8.0,   2.0000000e+00,0.0,0.16666667,0.16666667,11.0,True,1357,1.0
87184023,4,3.0,bin/iaps/20.jpg,2,512,bin/iaps/179.jpg,8,246,bin/iaps/82.jpg,5,778,bin/iaps/82.jpg,0.0,1.0,0.0,0.0065264116,0.66666667,6.4369397,   7.1036064e+00,   6.4369397e+00,8.0,   2.0000000e+00,0.16666667,0.33333333,0.33333333,11.0,True,553,3.0
87184023,5,4.0,bin/iaps/20.jpg,2,246,bin/iaps/179.jpg,8,778,bin/iaps/82.jpg,5,512,bin/iaps/82.jpg,0.0,1.0,0.0,-0.0038379029,0.75,6.7938168,   7.5438168e+00,   6.7995737e+00,8.0,   2.0000000e+00,0.25,0.41666667,0.41666667,11.0,True,1045,2.0
87184023,6,5.0,bin/iaps/20.jpg,2,512,bin/iaps/179.jpg,8,246,bin/iaps/82.jpg,5,778,bin/iaps/82.jpg,0.0,1.0,0.0,-0.0078249805,0.8,7.0289434,   7.8289434e+00,   7.0406809e+00,8.0,   2.0000000e+00,0.3,0.46666667,0.46666667,11.0,True,1729,3.0
87184023,7,0.0,bin/iaps/20.jpg,2,512,bin/iaps/56.jpg,2,778,bin/iaps/82.jpg,5,246,bin/iaps/82.jpg,0.0,1.0,0.0,-0.012080406,0.83333333,7.388933,   8.2222663e+00,   7.4152063e+00,2.0,   2.0000000e+00,0.33333333,0.33333333,0.5,11.0,True,1434,1.0
87184023,8,1.0,bin/iaps/20.jpg,2,778,bin/iaps/56.jpg,2,512,bin/iaps/82.jpg,5,246,bin/iaps/82.jpg,0.0,1.0,0.0,-0.011407501,0.85714286,7.4924694,   8.3496122e+00,   7.5163187e+00,2.0,   2.0000000e+00,0.35714286,0.35714286,0.52380952,11.0,False,1320,1.0
87184023,9,2.0,bin/iaps/20.jpg,2,246,bin/iaps/56.jpg,2,778,bin/iaps/82.jpg,5,512,,0.0,0.0,0.0,,,,             NaN,             NaN,,             NaN,,,,,,0,
87184023,10,3.0,bin/iaps/20.jpg,2,512,bin/iaps/56.jpg,2,246,bin/iaps/82.jpg,5,778,bin/iaps/20.jpg,0.0,0.0,1.0,-0.0020948382,0.33333333,7.0040194,   7.3373528e+00,   7.0301992e+00,2.0,   1.0000000e+00,0.13333333,-0.41666667,-0.16666667,3.0,False,1235,2.0
87184023,11,4.0,bin/iaps/20.jpg,2,246,bin/iaps/56.jpg,2,512,bin/iaps/82.jpg,5,778,bin/iaps/82.jpg,0.0,1.0,0.0,-0.01976786,0.75,6.9216999,   7.6716999e+00,   6.9682813e+00,2.0,   2.0000000e+00,0.25,0.25,0.5,11.0,True,1321,3.0
87184023,12,5.0,bin/iaps/20.jpg,2,246,bin/iaps/56.jpg,2,512,bin/iaps/82.jpg,5,778,bin/iaps/82.jpg,0.0,1.0,0.0,-0.018904401,0.77777778,7.036019,   7.8137968e+00,   7.0792452e+00,2.0,   2.0000000e+00,0.27777778,0.27777778,0.52777778,11.0,True,700,3.0
87184023,13,0.0,bin/iaps/54.jpg,2,512,bin/iaps/56.jpg,2,246,bin/iaps/82.jpg,5,778,bin/iaps/82.jpg,0.0,1.0,0.0,-0.019967173,0.8,7.3383886,   8.1383886e+00,   7.3683394e+00,5.0,   2.0000000e+00,0.3,0.3,0.3,11.0,False,716,3.0
87184023,14,1.0,bin/iaps/54.jpg,2,246,bin/iaps/56.jpg,2,512,bin/iaps/82.jpg,5,778,bin/iaps/54.jpg,1.0,0.0,0.0,0.014798315,0.5,7.1017547,   7.6017547e+00,   7.1017547e+00,2.0,   1.0000000e+00,0.3,-0.22727273,0.0,7.0,False,1386,1.0
87184023,15,2.0,bin/iaps/54.jpg,2,778,bin/iaps/56.jpg,2,512,bin/iaps/82.jpg,5,246,bin/iaps/54.jpg,1.0,0.0,0.0,-0.0013294092,0.33333333,6.8784101,   7.2117435e+00,   6.9074359e+00,2.0,   1.0000000e+00,0.13333333,-0.39393939,-0.16666667,7.0,False,1927,3.0
87184023,16,3.0,bin/iaps/54.jpg,2,512,bin/iaps/56.jpg,2,778,bin/iaps/82.jpg,5,246,bin/iaps/82.jpg,0.0,1.0,0.0,-0.023729385,0.72727273,6.7862778,   7.5135505e+00,   6.8408784e+00,5.0,   2.0000000e+00,0.22727273,0.22727273,0.47727273,11.0,True,706,1.0
87184023,17,4.0,bin/iaps/54.jpg,2,246,bin/iaps/56.jpg,2,512,bin/iaps/82.jpg,5,778,bin/iaps/82.jpg,0.0,1.0,0.0,-0.022722511,0.75,6.874602,   7.6246020e+00,   6.9261217e+00,5.0,   2.0000000e+00,0.25,0.25,0.5,11.0,False,1678,3.0
87184023,18,5.0,bin/iaps/54.jpg,2,778,bin/iaps/56.jpg,2,512,bin/iaps/82.jpg,5,246,bin/iaps/82.jpg,0.0,1.0,0.0,-0.026909325,0.69230769,6.6172305,   7.3095382e+00,   6.6792917e+00,5.0,   2.0000000e+00,0.19230769,0.19230769,0.44230769,11.0,True,1061,1.0
87184023,19,0.0,bin/iaps/54.jpg,2,246,bin/iaps/56.jpg,2,512,bin/iaps/124.jpg,5,778,bin/iaps/124.jpg,1.0,0.0,0.0,0.020062401,0.5,6.1340404,   6.6340404e+00,   6.1340404e+00,5.0,   2.0000000e+00,0.0,0.0,0.25,15.0,False,1351,3.0
87184023,20,1.0,bin/iaps/54.jpg,2,778,bin/iaps/56.jpg,2,512,bin/iaps/124.jpg,5,246,bin/iaps/54.jpg,0.0,0.0,1.0,-0.028543924,0.25,5.6607663,   5.9107663e+00,   5.7283555e+00,5.0,   1.0000000e+00,0.05,-0.25,-0.083333333,7.0,True,1658,3.0
87184023,21,2.0,bin/iaps/54.jpg,2,512,bin/iaps/56.jpg,2,778,bin/iaps/124.jpg,5,246,,0.0,0.0,0.0,,,,             NaN,             NaN,,             NaN,,,,,,0,
87184023,22,3.0,bin/iaps/54.jpg,2,246,bin/iaps/56.jpg,2,512,bin/iaps/124.jpg,5,778,bin/iaps/54.jpg,0.0,0.0,1.0,-0.031096492,0.4,5.9013237,   6.3013237e+00,   5.9721920e+00,5.0,   1.0000000e+00,0.2,-0.1,0.066666667,7.0,False,1051,1.0
87184023,23,4.0,bin/iaps/54.jpg,2,778,bin/iaps/56.jpg,2,246,bin/iaps/124.jpg,5,512,bin/iaps/56.jpg,0.0,1.0,0.0,0.042854296,0.5,5.8394781,   6.3394781e+00,   5.8394781e+00,5.0,   1.0000000e+00,0.3,0.16666667,0.16666667,8.0,False,1167,1.0
87184023,24,5.0,bin/iaps/54.jpg,2,246,bin/iaps/56.jpg,2,778,bin/iaps/124.jpg,5,512,bin/iaps/124.jpg,1.0,0.0,0.0,0.010778584,0.33333333,5.3348691,   5.6682024e+00,   5.3348691e+00,5.0,   2.0000000e+00,-0.16666667,0.0,0.0,15.0,False,1498,2.0
87184023,25,0.0,bin/iaps/54.jpg,2,778,bin/iaps/4.jpg,8,246,bin/iaps/124.jpg,5,512,bin/iaps/4.jpg,1.0,0.0,0.0,0.049192433,0.5,5.7090697,   6.2090697e+00,   5.7090697e+00,8.0,   3.0000000e+00,-0.3,0.16666667,0.25,1.0,True,858,1.0
87184023,26,1.0,bin/iaps/54.jpg,2,778,bin/iaps/4.jpg,8,246,bin/iaps/124.jpg,5,512,bin/iaps/4.jpg,1.0,0.0,0.0,0.018172113,0.66666667,6.319323,   6.9859897e+00,   6.3193230e+00,8.0,   3.0000000e+00,-0.13333333,0.33333333,0.41666667,1.0,True,616,1.0
87184023,27,2.0,bin/iaps/54.jpg,2,512,bin/iaps/4.jpg,8,246,bin/iaps/124.jpg,5,778,bin/iaps/4.jpg,1.0,0.0,0.0,0.0046269917,0.75,6.6929702,   7.4429702e+00,   6.6929702e+00,8.0,   3.0000000e+00,-0.05,0.41666667,0.5,1.0,True,747,1.0
87184023,28,3.0,bin/iaps/54.jpg,2,512,bin/iaps/4.jpg,8,246,bin/iaps/124.jpg,5,778,bin/iaps/4.jpg,1.0,0.0,0.0,-0.0014966478,0.8,6.938437,   7.7384370e+00,   6.9435177e+00,8.0,   3.0000000e+00,-2.220446e-16,0.46666667,0.55,1.0,True,857,1.0
87184023,29,4.0,bin/iaps/54.jpg,2,512,bin/iaps/4.jpg,8,246,bin/iaps/124.jpg,5,778,bin/iaps/4.jpg,1.0,0.0,0.0,-0.0045180782,0.83333333,7.1093647,   7.9426980e+00,   7.1185713e+00,8.0,   3.0000000e+00,0.033333333,0.5,0.58333333,1.0,True,908,1.0
87184023,30,5.0,bin/iaps/54.jpg,2,512,bin/iaps/4.jpg,8,246,bin/iaps/124.jpg,5,778,bin/iaps/4.jpg,1.0,0.0,0.0,-0.0061212298,0.85714286,7.2336343,   8.0907772e+00,   7.2449444e+00,8.0,   3.0000000e+00,0.057142857,0.52380952,0.60714286,1.0,False,657,1.0
87184023,31,6.0,bin/iaps/54.jpg,2,246,bin/iaps/4.jpg,8,778,bin/iaps/124.jpg,5,512,bin/iaps/4.jpg,1.0,0.0,0.0,-0.0075670451,0.75,6.6268837,   7.3768837e+00,   6.6417132e+00,8.0,   3.0000000e+00,-0.05,0.41666667,0.5,1.0,True,911,3.0
87184023,32,7.0,bin/iaps/54.jpg,2,246,bin/iaps/4.jpg,8,778,bin/iaps/124.jpg,5,512,bin/iaps/4.jpg,1.0,0.0,0.0,-0.0084373605,0.77777778,6.759312,   7.5370898e+00,   6.7751462e+00,8.0,   3.0000000e+00,-0.022222222,0.44444444,0.52777778,1.0,True,843,3.0
87184023,33,0.0,bin/iaps/222.jpg,2,246,bin/iaps/4.jpg,8,778,bin/iaps/124.jpg,5,512,bin/iaps/4.jpg,0.0,1.0,0.0,-0.018009419,0.8,7.1289195,   7.9289195e+00,   7.1690881e+00,8.0,   3.0000000e+00,-2.220446e-16,0.3,0.55,1.0,False,904,3.0
87184023,34,1.0,bin/iaps/222.jpg,2,246,bin/iaps/4.jpg,8,778,bin/iaps/124.jpg,5,512,bin/iaps/222.jpg,1.0,0.0,0.0,0.030871364,0.5,6.8408804,   7.3408804e+00,   6.8408804e+00,2.0,   1.0000000e+00,0.3,-0.22727273,0.25,26.0,False,1127,1.0
87184023,35,2.0,bin/iaps/222.jpg,2,512,bin/iaps/4.jpg,8,778,bin/iaps/124.jpg,5,246,bin/iaps/124.jpg,0.0,0.0,1.0,0.0025996321,0.25,6.5058845,   6.7558845e+00,   6.5169396e+00,5.0,   2.0000000e+00,-0.25,-0.47727273,-0.083333333,15.0,False,1397,1.0
87184023,36,3.0,bin/iaps/222.jpg,2,246,bin/iaps/4.jpg,8,778,bin/iaps/124.jpg,5,512,bin/iaps/4.jpg,0.0,1.0,0.0,-0.014500096,0.72727273,6.4448891,   7.1721618e+00,   6.4743491e+00,8.0,   3.0000000e+00,-0.072727273,0.39393939,0.52727273,1.0,True,1407,3.0
87184023,37,4.0,bin/iaps/222.jpg,2,778,bin/iaps/4.jpg,8,512,bin/iaps/124.jpg,5,246,bin/iaps/4.jpg,0.0,1.0,0.0,-0.014431809,0.75,6.5479624,   7.2979624e+00,   6.5765887e+00,8.0,   3.0000000e+00,-0.05,0.41666667,0.55,1.0,True,976,2.0
87184023,38,5.0,bin/iaps/222.jpg,2,778,bin/iaps/4.jpg,8,246,bin/iaps/124.jpg,5,512,bin/iaps/4.jpg,0.0,1.0,0.0,-0.014296359,0.76923077,6.6361331,   7.4053639e+00,   6.6639148e+00,8.0,   3.0000000e+00,-0.030769231,0.43589744,0.56923077,1.0,True,1296,1.0
87184023,39,6.0,bin/iaps/222.jpg,2,512,bin/iaps/4.jpg,8,246,bin/iaps/124.jpg,5,778,bin/iaps/4.jpg,0.0,1.0,0.0,-0.014125936,0.78571429,6.7120095,   7.4977238e+00,   6.7389710e+00,8.0,   3.0000000e+00,-0.014285714,0.45238095,0.58571429,1.0,True,866,1.0
87184023,40,0.0,bin/iaps/240.jpg,5,778,bin/iaps/4.jpg,8,512,bin/iaps/124.jpg,5,246,bin/iaps/4.jpg,0.0,1.0,0.0,-0.019028554,0.8,7.0473878,   7.8473878e+00,   7.0902778e+00,8.0,   3.0000000e+00,-2.220446e-16,0.3,0.6,1.0,True,1192,2.0
87184023,1,0.0,bin/iaps/134.jpg,5,246,bin/iaps/106.jpg,8,778,bin/iaps/267.jpg,2,512,bin/iaps/134.jpg,1.0,0.0,0.0,5.599962e-08,0.5,6.5472319,   7.0472319e+00,   6.5472319e+00,5.0,   2.0000000e+00,0.0,0.0,0.0,17.0,False,1088,1.0
87184023,2,1.0,bin/iaps/134.jpg,5,512,bin/iaps/106.jpg,8,246,bin/iaps/267.jpg,2,778,bin/iaps/106.jpg,0.0,0.0,1.0,0.01473742,0.5,6.2368074,   6.7368074e+00,   6.2368074e+00,8.0,   3.0000000e+00,-0.3,0.0,0.16666667,13.0,True,1314,1.0
87184023,3,2.0,bin/iaps/134.jpg,5,246,bin/iaps/106.jpg,8,512,bin/iaps/267.jpg,2,778,bin/iaps/106.jpg,0.0,1.0,0.0,-0.0045482472,0.66666667,6.7340023,   7.4006689e+00,   6.7574365e+00,8.0,   3.0000000e+00,-0.13333333,0.16666667,0.33333333,13.0,True,694,2.0
87184023,4,3.0,bin/iaps/134.jpg,5,778,bin/iaps/106.jpg,8,246,bin/iaps/267.jpg,2,512,bin/iaps/106.jpg,0.0,1.0,0.0,-0.010769168,0.75,7.0427322,   7.7927322e+00,   7.0716167e+00,8.0,   3.0000000e+00,-0.05,0.25,0.41666667,13.0,True,681,1.0
87184023,5,4.0,bin/iaps/134.jpg,5,512,bin/iaps/106.jpg,8,246,bin/iaps/267.jpg,2,778,bin/iaps/106.jpg,0.0,1.0,0.0,-0.012230268,0.8,7.2466298,   8.0466298e+00,   7.2750358e+00,8.0,   3.0000000e+00,-2.220446e-16,0.3,0.46666667,13.0,True,593,1.0
87184023,6,0.0,bin/iaps/134.jpg,5,246,bin/iaps/106.jpg,8,512,bin/iaps/177.jpg,5,778,bin/iaps/106.jpg,0.0,1.0,0.0,-0.012080522,0.83333333,7.388934,   8.2222673e+00,   7.4152076e+00,5.0,   3.0000000e+00,0.033333333,0.33333333,0.5,13.0,True,945,2.0
87184023,7,1.0,bin/iaps/134.jpg,5,778,bin/iaps/106.jpg,8,512,bin/iaps/177.jpg,5,246,bin/iaps/106.jpg,0.0,1.0,0.0,-0.01140762,0.85714286,7.4924704,   8.3496132e+00,   7.5163199e+00,5.0,   3.0000000e+00,0.057142857,0.35714286,0.52380952,13.0,True,650,2.0
87184023,8,2.0,bin/iaps/134.jpg,5,246,bin/iaps/106.jpg,8,778,bin/iaps/177.jpg,5,512,bin/iaps/106.jpg,0.0,1.0,0.0,-0.01060664,0.875,7.5701551,   8.4451551e+00,   7.5917216e+00,5.0,   3.0000000e+00,0.075,0.375,0.54166667,13.0,False,861,3.0
87184023,9,3.0,bin/iaps/134.jpg,5,778,bin/iaps/106.jpg,8,246,bin/iaps/177.jpg,5,512,bin/iaps/177.jpg,1.0,0.0,0.0,0.022020751,0.5,7.1365672,   7.6365672e+00,   7.1365672e+00,5.0,   2.0000000e+00,0.0,-0.27777778,0.16666667,20.0,False,664,2.0
87184023,10,4.0,bin/iaps/134.jpg,5,778,bin/iaps/106.jpg,8,512,bin/iaps/177.jpg,5,246,bin/iaps/134.jpg,0.0,0.0,1.0,0.0079364987,0.33333333,6.8802332,   7.2135666e+00,   6.8802332e+00,5.0,   2.0000000e+00,-0.16666667,-0.44444444,0.0,17.0,False,589,3.0
87184023,11,5.0,bin/iaps/134.jpg,5,778,bin/iaps/106.jpg,8,512,bin/iaps/177.jpg,5,246,bin/iaps/106.jpg,0.0,1.0,0.0,-0.013226931,0.77777778,6.7715828,   7.5493606e+00,   6.7956479e+00,5.0,   3.0000000e+00,-0.022222222,0.44444444,0.52777778,13.0,True,879,2.0
87184023,12,6.0,bin/iaps/134.jpg,5,512,bin/iaps/106.jpg,8,778,bin/iaps/177.jpg,5,246,bin/iaps/106.jpg,0.0,1.0,0.0,-0.013217054,0.8,6.8783938,   7.6783938e+00,   6.9019038e+00,5.0,   3.0000000e+00,-2.220446e-16,0.46666667,0.55,13.0,True,873,3.0
87184023,13,7.0,bin/iaps/134.jpg,5,512,bin/iaps/106.jpg,8,246,bin/iaps/177.jpg,5,778,bin/iaps/106.jpg,0.0,1.0,0.0,-0.013087739,0.81818182,6.9662824,   7.7844642e+00,   6.9891441e+00,5.0,   3.0000000e+00,0.018181818,0.48484848,0.56818182,13.0,True,715,1.0
87184023,14,0.0,bin/iaps/134.jpg,5,512,bin/iaps/11.jpg,2,778,bin/iaps/177.jpg,5,246,bin/iaps/11.jpg,1.0,0.0,0.0,0.039045304,0.5,5.7283555,   6.2283555e+00,   5.7283555e+00,2.0,   1.0000000e+00,0.3,0.16666667,0.25,2.0,False,1165,3.0
87184023,15,1.0,bin/iaps/134.jpg,5,778,bin/iaps/11.jpg,2,512,bin/iaps/177.jpg,5,246,bin/iaps/134.jpg,0.0,0.0,1.0,-0.013584352,0.25,5.1794147,   5.4294147e+00,   5.1997913e+00,2.0,   2.0000000e+00,-0.25,-0.083333333,-0.083333333,17.0,True,1467,3.0
87184023,16,2.0,bin/iaps/134.jpg,5,512,bin/iaps/11.jpg,2,778,bin/iaps/177.jpg,5,246,bin/iaps/134.jpg,0.0,1.0,0.0,-0.016709262,0.4,5.4693344,   5.8693344e+00,   5.4943983e+00,2.0,   2.0000000e+00,-0.1,0.066666667,0.066666667,17.0,True,711,2.0
87184023,17,3.0,bin/iaps/134.jpg,5,512,bin/iaps/11.jpg,2,246,bin/iaps/177.jpg,5,778,bin/iaps/134.jpg,0.0,1.0,0.0,-0.019188872,0.5,5.7408385,   6.2408385e+00,   5.7696218e+00,2.0,   2.0000000e+00,0.0,0.16666667,0.16666667,17.0,False,950,2.0
87184023,18,4.0,bin/iaps/134.jpg,5,512,bin/iaps/11.jpg,2,246,bin/iaps/177.jpg,5,778,bin/iaps/11.jpg,1.0,0.0,0.0,0.011574522,0.33333333,5.5514399,   5.8847733e+00,   5.5514400e+00,2.0,   1.0000000e+00,0.13333333,-0.095238095,0.0,2.0,False,876,1.0
87184023,19,5.0,bin/iaps/134.jpg,5,246,bin/iaps/11.jpg,2,778,bin/iaps/177.jpg,5,512,bin/iaps/177.jpg,0.0,0.0,1.0,0.018235994,0.33333333,5.4087251,   5.7420584e+00,   5.4087251e+00,2.0,   2.0000000e+00,-0.16666667,-0.095238095,0.083333333,20.0,False,1706,2.0
87184023,20,6.0,bin/iaps/134.jpg,5,246,bin/iaps/11.jpg,2,778,bin/iaps/177.jpg,5,512,bin/iaps/177.jpg,0.0,0.0,1.0,0.0050788165,0.25,5.2328953,   5.4828953e+00,   5.2328953e+00,2.0,   2.0000000e+00,-0.25,-0.17857143,0.0,20.0,True,754,2.0
87184023,21,0.0,bin/iaps/253.jpg,5,246,bin/iaps/11.jpg,2,778,bin/iaps/177.jpg,5,512,bin/iaps/177.jpg,0.0,1.0,0.0,-0.025396206,0.4,5.7813139,   6.1813139e+00,   5.8525934e+00,5.0,   2.0000000e+00,-0.1,-0.1,0.15,20.0,False,1272,2.0
87184023,22,1.0,bin/iaps/253.jpg,5,512,bin/iaps/11.jpg,2,246,bin/iaps/177.jpg,5,778,bin/iaps/253.jpg,1.0,0.0,0.0,0.049192487,0.5,5.7090699,   6.2090699e+00,   5.7090699e+00,5.0,   2.0000000e+00,0.0,0.16666667,0.25,30.0,False,897,2.0
87184023,23,2.0,bin/iaps/253.jpg,5,246,bin/iaps/11.jpg,2,512,bin/iaps/177.jpg,5,778,bin/iaps/253.jpg,1.0,0.0,0.0,0.017717233,0.33333333,5.1771967,   5.5105300e+00,   5.1771967e+00,5.0,   2.0000000e+00,-0.16666667,0.0,0.083333333,30.0,False,1640,1.0
87184023,24,3.0,bin/iaps/253.jpg,5,778,bin/iaps/11.jpg,2,246,bin/iaps/177.jpg,5,512,bin/iaps/177.jpg,0.0,1.0,0.0,-0.0079755981,0.33333333,4.9735958,   5.3069292e+00,   4.9855593e+00,5.0,   2.0000000e+00,-0.16666667,0.083333333,0.083333333,20.0,False,1891,2.0
87184023,25,4.0,bin/iaps/253.jpg,5,512,bin/iaps/11.jpg,2,778,bin/iaps/177.jpg,5,246,bin/iaps/11.jpg,0.0,0.0,1.0,0.0052684043,0.25,4.8742755,   5.1242755e+00,   4.8742755e+00,2.0,   1.0000000e+00,0.05,-0.035714286,0.0,2.0,False,1148,3.0
87184023,26,5.0,bin/iaps/253.jpg,5,246,bin/iaps/11.jpg,2,778,bin/iaps/177.jpg,5,512,bin/iaps/177.jpg,0.0,1.0,0.0,-0.0073207442,0.28571429,4.7743876,   5.0601019e+00,   4.7900388e+00,5.0,   2.0000000e+00,-0.21428571,0.035714286,0.085714286,20.0,False,1091,2.0
87184023,27,0.0,bin/iaps/253.jpg,5,512,bin/iaps/11.jpg,2,246,bin/iaps/182.jpg,5,778,bin/iaps/182.jpg,1.0,0.0,0.0,0.047481721,0.5,5.5191868,   6.0191868e+00,   5.5191868e+00,5.0,   2.0000000e+00,0.0,0.25,0.3,22.0,True,977,3.0
87184023,28,1.0,bin/iaps/253.jpg,5,512,bin/iaps/11.jpg,2,778,bin/iaps/182.jpg,5,246,bin/iaps/182.jpg,1.0,0.0,0.0,0.01697255,0.66666667,6.1651839,   6.8318505e+00,   6.1651839e+00,5.0,   2.0000000e+00,0.16666667,0.41666667,0.46666667,22.0,False,929,1.0
87184023,29,2.0,bin/iaps/253.jpg,5,512,bin/iaps/11.jpg,2,778,bin/iaps/182.jpg,5,246,bin/iaps/253.jpg,0.0,1.0,0.0,0.00059450905,0.25,5.4310927,   5.6810927e+00,   5.4373983e+00,5.0,   2.0000000e+00,-0.25,-0.25,0.05,30.0,True,1035,2.0
87184023,30,3.0,bin/iaps/253.jpg,5,778,bin/iaps/11.jpg,2,246,bin/iaps/182.jpg,5,512,bin/iaps/253.jpg,0.0,1.0,0.0,-0.0026906837,0.4,5.7093666,   6.1093666e+00,   5.7203775e+00,5.0,   2.0000000e+00,-0.1,-0.1,0.2,30.0,False,713,3.0
87184023,31,4.0,bin/iaps/253.jpg,5,778,bin/iaps/11.jpg,2,512,bin/iaps/182.jpg,5,246,bin/iaps/182.jpg,1.0,0.0,0.0,0.010545996,0.5,5.5685155,   6.0685155e+00,   5.5685155e+00,5.0,   2.0000000e+00,0.0,0.16666667,0.3,22.0,True,1291,1.0
87184023,32,5.0,bin/iaps/253.jpg,5,246,bin/iaps/11.jpg,2,778,bin/iaps/182.jpg,5,512,,0.0,0.0,0.0,,,,             NaN,             NaN,,             NaN,,,,,,0,
87184023,33,6.0,bin/iaps/253.jpg,5,778,bin/iaps/11.jpg,2,246,bin/iaps/182.jpg,5,512,bin/iaps/182.jpg,1.0,0.0,0.0,0.0029192593,0.6,5.9300766,   6.5300766e+00,   5.9300766e+00,5.0,   2.0000000e+00,0.1,0.26666667,0.4,22.0,False,1480,2.0
87184023,34,0.0,bin/iaps/253.jpg,5,246,bin/iaps/278.jpg,2,512,bin/iaps/182.jpg,5,778,,0.0,0.0,0.0,,,,             NaN,             NaN,,             NaN,,,,,,0,
87184023,35,1.0,bin/iaps/253.jpg,5,778,bin/iaps/278.jpg,2,512,bin/iaps/182.jpg,5,246,bin/iaps/182.jpg,1.0,0.0,0.0,-0.00070149498,0.5,5.5310458,   6.0310458e+00,   5.5334126e+00,5.0,   2.0000000e+00,0.0,0.16666667,0.3,22.0,False,737,1.0
87184023,36,2.0,bin/iaps/253.jpg,5,778,bin/iaps/278.jpg,2,512,bin/iaps/182.jpg,5,246,bin/iaps/278.jpg,0.0,0.0,1.0,0.0029597648,0.2,5.2939378,   5.4939378e+00,   5.2939378e+00,5.0,   1.0000000e+00,1.6653345e-16,-0.22857143,-0.13333333,35.0,False,1021,2.0
87184023,37,3.0,bin/iaps/253.jpg,5,778,bin/iaps/278.jpg,2,512,bin/iaps/182.jpg,5,246,,0.0,0.0,0.0,,,,             NaN,             NaN,,             NaN,,,,,,0,
87184023,38,4.0,bin/iaps/253.jpg,5,512,bin/iaps/278.jpg,2,778,bin/iaps/182.jpg,5,246,bin/iaps/278.jpg,0.0,0.0,1.0,-7.8577322e-06,0.16666667,5.2565153,   5.4231819e+00,   5.2583420e+00,5.0,   1.0000000e+00,-0.033333333,-0.26190476,-0.16666667,35.0,False,1244,3.0
87184023,39,5.0,bin/iaps/253.jpg,5,512,bin/iaps/278.jpg,2,246,bin/iaps/182.jpg,5,778,bin/iaps/253.jpg,0.0,1.0,0.0,0.0025880643,0.33333333,5.2395448,   5.5728781e+00,   5.2395448e+00,5.0,   2.0000000e+00,-0.16666667,-0.095238095,0.19047619,30.0,True,1276,2.0
87184023,40,0.0,bin/iaps/67.jpg,8,246,bin/iaps/278.jpg,2,512,bin/iaps/182.jpg,5,778,bin/iaps/67.jpg,1.0,0.0,0.0,0.051026672,0.5,5.8145909,   6.3145909e+00,   5.8145909e+00,8.0,   3.0000000e+00,-0.3,0.071428571,0.35714286,9.0,False,968,1.0
87158234,1,0.0,bin/iaps/205.jpg,8,246,bin/iaps/168.jpg,2,512,bin/iaps/150.jpg,5,778,bin/iaps/168.jpg,0.0,0.0,0.0,-4.6819504e-08,0.5,6.5472318,   7.0472318e+00,   6.5472319e+00,,   1.0000000e+00,0.3,0.0,0.0,11.0,False,972,2.0
87158234,2,1.0,bin/iaps/205.jpg,8,246,bin/iaps/168.jpg,2,512,bin/iaps/150.jpg,5,778,bin/iaps/168.jpg,0.0,0.0,0.0,-0.029474959,0.33333333,6.1925951,   6.5259285e+00,   6.2368076e+00,,   1.0000000e+00,0.13333333,-0.16666667,-0.16666667,11.0,False,702,2.0
87158234,3,2.0,bin/iaps/205.jpg,8,246,bin/iaps/168.jpg,2,778,bin/iaps/150.jpg,5,512,bin/iaps/168.jpg,0.0,0.0,0.0,-0.040124768,0.25,6.0738534,   6.3238534e+00,   6.1340406e+00,,   1.0000000e+00,0.05,-0.25,-0.25,11.0,False,834,3.0
87158234,4,3.0,bin/iaps/205.jpg,8,512,bin/iaps/168.jpg,2,778,bin/iaps/150.jpg,5,246,bin/iaps/150.jpg,0.0,0.0,0.0,0.022084341,0.5,6.0898811,   6.5898811e+00,   6.0898811e+00,,   2.0000000e+00,0.0,0.0,0.3,4.0,True,662,1.0
87158234,5,4.0,bin/iaps/205.jpg,8,512,bin/iaps/168.jpg,2,246,bin/iaps/150.jpg,5,778,bin/iaps/150.jpg,0.0,0.0,0.0,0.00047926365,0.66666667,6.6268851,   7.2935518e+00,   6.6500622e+00,,   2.0000000e+00,0.16666667,0.16666667,0.46666667,4.0,False,927,3.0
87158234,6,0.0,bin/iaps/205.jpg,8,778,bin/iaps/170.jpg,2,512,bin/iaps/150.jpg,5,246,bin/iaps/150.jpg,0.0,0.0,1.0,-0.032298266,0.5,6.4830496,   6.9830496e+00,   6.5314970e+00,2.0,   2.0000000e+00,0.0,0.0,0.0,4.0,True,714,1.0
87158234,7,1.0,bin/iaps/205.jpg,8,246,bin/iaps/170.jpg,2,778,bin/iaps/150.jpg,5,512,bin/iaps/150.jpg,0.0,1.0,0.0,-0.031800909,0.6,6.7225227,   7.3225227e+00,   6.7702242e+00,2.0,   2.0000000e+00,0.1,0.1,0.1,4.0,False,680,2.0
87158234,8,2.0,bin/iaps/205.jpg,8,512,bin/iaps/170.jpg,2,778,bin/iaps/150.jpg,5,246,bin/iaps/150.jpg,0.0,0.0,1.0,-0.041481146,0.5,6.4538715,   6.9538715e+00,   6.5160933e+00,2.0,   2.0000000e+00,0.0,0.0,0.0,4.0,True,574,1.0
87158234,9,3.0,bin/iaps/205.jpg,8,512,bin/iaps/170.jpg,2,778,bin/iaps/150.jpg,5,246,bin/iaps/150.jpg,0.0,1.0,0.0,-0.039507401,0.57142857,6.6186144,   7.1900430e+00,   6.6778756e+00,2.0,   2.0000000e+00,0.071428571,0.071428571,0.071428571,4.0,False,590,1.0
87158234,10,4.0,bin/iaps/205.jpg,8,512,bin/iaps/170.jpg,2,246,bin/iaps/150.jpg,5,778,bin/iaps/150.jpg,0.0,0.0,1.0,-0.04545668,0.5,6.4328356,   6.9328356e+00,   6.5010207e+00,2.0,   2.0000000e+00,0.0,0.0,0.0,4.0,False,696,3.0
87158234,11,5.0,bin/iaps/205.jpg,8,246,bin/iaps/170.jpg,2,512,bin/iaps/150.jpg,5,778,bin/iaps/150.jpg,0.0,0.0,1.0,-0.049107159,0.44444444,6.307881,   6.7523254e+00,   6.3815418e+00,2.0,   2.0000000e+00,-0.055555556,-0.055555556,-0.055555556,4.0,False,571,3.0
87158234,12,0.0,bin/iaps/205.jpg,8,512,bin/iaps/170.jpg,2,778,bin/iaps/176.jpg,5,246,bin/iaps/176.jpg,1.0,0.0,0.0,-9.1801162e-09,0.5,6.5472319,   7.0472319e+00,   6.5472319e+00,5.0,   2.0000000e+00,0.0,0.0,0.0,16.0,False,996,1.0
87158234,13,1.0,bin/iaps/205.jpg,8,512,bin/iaps/170.jpg,2,778,bin/iaps/176.jpg,5,246,bin/iaps/205.jpg,0.0,1.0,0.0,0.014737518,0.5,6.2368086,   6.7368086e+00,   6.2368086e+00,5.0,   3.0000000e+00,-0.3,0.0,0.16666667,29.0,True,1486,2.0
87158234,14,2.0,bin/iaps/205.jpg,8,512,bin/iaps/170.jpg,2,778,bin/iaps/176.jpg,5,246,bin/iaps/205.jpg,0.0,1.0,0.0,-0.0045481795,0.66666667,6.734004,   7.4006707e+00,   6.7574381e+00,5.0,   3.0000000e+00,-0.13333333,0.16666667,0.33333333,29.0,True,586,2.0
87158234,15,3.0,bin/iaps/205.jpg,8,778,bin/iaps/170.jpg,2,246,bin/iaps/176.jpg,5,512,bin/iaps/205.jpg,0.0,1.0,0.0,-0.010769113,0.75,7.0427343,   7.7927343e+00,   7.0716187e+00,5.0,   3.0000000e+00,-0.05,0.25,0.41666667,29.0,True,1212,3.0
87158234,16,4.0,bin/iaps/205.jpg,8,778,bin/iaps/170.jpg,2,246,bin/iaps/176.jpg,5,512,bin/iaps/205.jpg,0.0,1.0,0.0,-0.012230218,0.8,7.2466321,   8.0466321e+00,   7.2750381e+00,5.0,   3.0000000e+00,6.6613381e-16,0.3,0.46666667,29.0,True,1084,3.0
87158234,17,5.0,bin/iaps/205.jpg,8,246,bin/iaps/170.jpg,2,778,bin/iaps/176.jpg,5,512,bin/iaps/205.jpg,0.0,1.0,0.0,-0.012080474,0.83333333,7.3889366,   8.2222699e+00,   7.4152101e+00,5.0,   3.0000000e+00,0.033333333,0.33333333,0.5,29.0,True,1137,1.0
87158234,18,0.0,bin/iaps/205.jpg,8,246,bin/iaps/170.jpg,2,512,bin/iaps/190.jpg,5,778,bin/iaps/205.jpg,0.0,1.0,0.0,-0.0095972395,0.85714286,7.6044293,   8.4615722e+00,   7.6188252e+00,5.0,   3.0000000e+00,0.057142857,0.35714286,0.35714286,29.0,True,921,1.0
87158234,19,1.0,bin/iaps/205.jpg,8,246,bin/iaps/170.jpg,2,512,bin/iaps/190.jpg,5,778,bin/iaps/205.jpg,0.0,1.0,0.0,-0.0079351336,0.875,7.6701926,   8.5451926e+00,   7.6820954e+00,5.0,   3.0000000e+00,0.075,0.375,0.375,29.0,True,683,1.0
87158234,20,2.0,bin/iaps/205.jpg,8,512,bin/iaps/170.jpg,2,246,bin/iaps/190.jpg,5,778,bin/iaps/205.jpg,0.0,1.0,0.0,-0.0064966404,0.88888889,7.7205699,   8.6094588e+00,   7.7303149e+00,5.0,   3.0000000e+00,0.088888889,0.38888889,0.38888889,29.0,False,1014,2.0
87158234,21,3.0,bin/iaps/205.jpg,8,246,bin/iaps/170.jpg,2,778,bin/iaps/190.jpg,5,512,bin/iaps/205.jpg,0.0,1.0,0.0,-0.019967218,0.8,7.3383904,   8.1383904e+00,   7.3683413e+00,5.0,   3.0000000e+00,-2.220446e-16,0.3,0.3,29.0,True,1537,1.0
87158234,22,4.0,bin/iaps/205.jpg,8,512,bin/iaps/170.jpg,2,778,bin/iaps/190.jpg,5,246,bin/iaps/205.jpg,0.0,1.0,0.0,-0.018064327,0.81818182,7.4003607,   8.2185426e+00,   7.4274573e+00,5.0,   3.0000000e+00,0.018181818,0.31818182,0.31818182,29.0,False,1141,2.0
87158234,23,5.0,bin/iaps/205.jpg,8,512,bin/iaps/170.jpg,2,246,bin/iaps/190.jpg,5,778,bin/iaps/205.jpg,0.0,1.0,0.0,-0.027468,0.75,7.1285493,   7.8785493e+00,   7.1697513e+00,5.0,   3.0000000e+00,-0.05,0.25,0.25,29.0,False,936,2.0
87158234,24,6.0,bin/iaps/205.jpg,8,246,bin/iaps/170.jpg,2,512,bin/iaps/190.jpg,5,778,bin/iaps/205.jpg,0.0,1.0,0.0,-0.034483606,0.69230769,6.9184642,   7.6107719e+00,   6.9701896e+00,5.0,   3.0000000e+00,-0.10769231,0.19230769,0.19230769,29.0,True,928,1.0
87158234,25,7.0,bin/iaps/205.jpg,8,778,bin/iaps/170.jpg,2,246,bin/iaps/190.jpg,5,512,bin/iaps/205.jpg,0.0,1.0,0.0,-0.032519416,0.71428571,6.982715,   7.6970007e+00,   7.0314941e+00,5.0,   3.0000000e+00,-0.085714286,0.21428571,0.21428571,29.0,True,1520,3.0
87158234,26,8.0,bin/iaps/205.jpg,8,778,bin/iaps/170.jpg,2,246,bin/iaps/190.jpg,5,512,bin/iaps/205.jpg,0.0,1.0,0.0,-0.030705799,0.73333333,7.0392323,   7.7725656e+00,   7.0852910e+00,5.0,   3.0000000e+00,-0.066666667,0.23333333,0.23333333,29.0,True,1203,3.0
87158234,27,0.0,bin/iaps/205.jpg,8,246,bin/iaps/207.jpg,2,512,bin/iaps/190.jpg,5,778,bin/iaps/205.jpg,0.0,1.0,0.0,-0.029038702,0.75,7.089073,   7.8390730e+00,   7.1326311e+00,2.0,   3.0000000e+00,-0.05,0.25,0.25,29.0,True,1047,1.0
87158234,28,1.0,bin/iaps/205.jpg,8,512,bin/iaps/207.jpg,2,246,bin/iaps/190.jpg,5,778,bin/iaps/205.jpg,0.0,1.0,0.0,-0.027509955,0.76470588,7.1331274,   7.8978333e+00,   7.1743924e+00,2.0,   3.0000000e+00,-0.035294118,0.26470588,0.26470588,29.0,False,920,2.0
87158234,29,2.0,bin/iaps/205.jpg,8,778,bin/iaps/207.jpg,2,512,bin/iaps/190.jpg,5,246,bin/iaps/205.jpg,0.0,1.0,0.0,-0.032923246,0.72222222,6.9719027,   7.6941249e+00,   7.0212876e+00,2.0,   3.0000000e+00,-0.077777778,0.22222222,0.22222222,29.0,False,1162,3.0
87158234,30,3.0,bin/iaps/205.jpg,8,512,bin/iaps/207.jpg,2,778,bin/iaps/190.jpg,5,246,bin/iaps/207.jpg,1.0,0.0,0.0,0.0186683,0.5,6.8923834,   7.3923834e+00,   6.8923834e+00,2.0,   1.0000000e+00,0.3,-0.18421053,0.0,30.0,False,1634,3.0
87158234,31,4.0,bin/iaps/205.jpg,8,512,bin/iaps/207.jpg,2,778,bin/iaps/190.jpg,5,246,bin/iaps/205.jpg,0.0,1.0,0.0,-0.032533348,0.68421053,6.5977875,   7.2819980e+00,   6.6638054e+00,2.0,   3.0000000e+00,-0.11578947,0.18421053,0.35087719,29.0,True,840,2.0
87158234,32,5.0,bin/iaps/205.jpg,8,778,bin/iaps/207.jpg,2,246,bin/iaps/190.jpg,5,512,bin/iaps/205.jpg,0.0,1.0,0.0,-0.031558752,0.7,6.6485424,   7.3485424e+00,   6.7124545e+00,2.0,   3.0000000e+00,-0.1,0.2,0.36666667,29.0,False,864,3.0
87158234,33,6.0,bin/iaps/205.jpg,8,778,bin/iaps/207.jpg,2,246,bin/iaps/190.jpg,5,512,bin/iaps/205.jpg,0.0,1.0,0.0,-0.034193752,0.66666667,6.512473,   7.1791396e+00,   6.5819113e+00,2.0,   3.0000000e+00,-0.13333333,0.16666667,0.33333333,29.0,True,907,3.0
87158234,34,0.0,bin/iaps/205.jpg,8,778,bin/iaps/165.jpg,2,512,bin/iaps/190.jpg,5,246,bin/iaps/205.jpg,0.0,1.0,0.0,-0.038288484,0.68181818,6.8020336,   7.4838517e+00,   6.8594663e+00,2.0,   3.0000000e+00,-0.11818182,0.18181818,0.18181818,29.0,True,981,3.0
87158234,35,1.0,bin/iaps/205.jpg,8,246,bin/iaps/165.jpg,2,512,bin/iaps/190.jpg,5,778,bin/iaps/205.jpg,0.0,1.0,0.0,-0.037053118,0.69565217,6.8374256,   7.5330778e+00,   6.8930053e+00,2.0,   3.0000000e+00,-0.10434783,0.19565217,0.19565217,29.0,True,1125,1.0
87158234,36,2.0,bin/iaps/205.jpg,8,246,bin/iaps/165.jpg,2,778,bin/iaps/190.jpg,5,512,bin/iaps/205.jpg,0.0,1.0,0.0,-0.035883765,0.70833333,6.8699239,   7.5782573e+00,   6.9237496e+00,2.0,   3.0000000e+00,-0.091666667,0.20833333,0.20833333,29.0,True,1176,1.0
87158234,37,3.0,bin/iaps/205.jpg,8,512,bin/iaps/165.jpg,2,246,bin/iaps/190.jpg,5,778,bin/iaps/205.jpg,0.0,1.0,0.0,-0.034778648,0.72,6.8997584,   7.6197584e+00,   6.9519263e+00,2.0,   3.0000000e+00,-0.08,0.22,0.22,29.0,True,920,2.0
87158234,38,4.0,bin/iaps/205.jpg,8,512,bin/iaps/165.jpg,2,246,bin/iaps/190.jpg,5,778,bin/iaps/205.jpg,0.0,1.0,0.0,-0.03373536,0.73076923,6.9271389,   7.6579082e+00,   6.9777420e+00,2.0,   3.0000000e+00,-0.069230769,0.23076923,0.23076923,29.0,True,944,2.0
87158234,39,5.0,bin/iaps/205.jpg,8,246,bin/iaps/165.jpg,2,512,bin/iaps/190.jpg,5,778,bin/iaps/205.jpg,0.0,1.0,0.0,-0.032751129,0.74074074,6.9522566,   7.6929973e+00,   7.0013833e+00,2.0,   3.0000000e+00,-0.059259259,0.24074074,0.24074074,29.0,True,1123,1.0
87158234,40,0.0,bin/iaps/205.jpg,8,512,bin/iaps/165.jpg,2,778,bin/iaps/208.jpg,5,246,bin/iaps/205.jpg,0.0,1.0,0.0,-0.031823006,0.75,6.9752845,   7.7252845e+00,   7.0230190e+00,5.0,   3.0000000e+00,-0.05,0.25,0.25,29.0,False,1044,2.0
87158234,1,0.0,bin/iaps/179.jpg,2,512,bin/iaps/197.jpg,8,778,bin/iaps/180.jpg,5,246,bin/iaps/180.jpg,1.0,0.0,0.0,-9.1801162e-09,0.5,6.5472319,   7.0472319e+00,   6.5472319e+00,5.0,   2.0000000e+00,0.0,0.0,0.0,19.0,True,1337,1.0
87158234,2,1.0,bin/iaps/179.jpg,2,246,bin/iaps/197.jpg,8,778,bin/iaps/180.jpg,5,512,bin/iaps/180.jpg,1.0,0.0,0.0,-0.012243979,0.66666667,6.9627998,   7.6294665e+00,   6.9811659e+00,5.0,   2.0000000e+00,0.16666667,0.16666667,0.16666667,19.0,True,649,2.0
87158234,3,2.0,bin/iaps/179.jpg,2,246,bin/iaps/197.jpg,8,778,bin/iaps/180.jpg,5,512,bin/iaps/180.jpg,1.0,0.0,0.0,-0.014321474,0.75,7.2233819,   7.9733819e+00,   7.2448642e+00,5.0,   2.0000000e+00,0.25,0.25,0.25,19.0,False,618,2.0
87158234,4,3.0,bin/iaps/179.jpg,2,778,bin/iaps/197.jpg,8,246,bin/iaps/180.jpg,5,512,bin/iaps/180.jpg,1.0,0.0,0.0,-0.031800909,0.6,6.7225227,   7.3225227e+00,   6.7702242e+00,5.0,   2.0000000e+00,0.1,0.1,0.1,19.0,True,546,2.0
87158234,5,4.0,bin/iaps/179.jpg,2,778,bin/iaps/197.jpg,8,246,bin/iaps/180.jpg,5,512,bin/iaps/180.jpg,1.0,0.0,0.0,-0.029684801,0.66666667,6.909203,   7.5758697e+00,   6.9537302e+00,5.0,   2.0000000e+00,0.16666667,0.16666667,0.16666667,19.0,False,623,2.0
87158234,6,0.0,bin/iaps/179.jpg,2,512,bin/iaps/197.jpg,8,246,bin/iaps/175.jpg,2,778,,0.0,0.0,0.0,,,,             NaN,             NaN,,             NaN,,,,,,0,
87158234,7,1.0,bin/iaps/179.jpg,2,246,bin/iaps/197.jpg,8,778,bin/iaps/175.jpg,2,512,bin/iaps/179.jpg,0.0,1.0,0.0,0.019753748,0.5,6.6778756,   7.1778756e+00,   6.6778756e+00,2.0,   1.0000000e+00,0.3,-0.071428571,0.0,18.0,False,993,1.0
87158234,8,2.0,bin/iaps/179.jpg,2,246,bin/iaps/197.jpg,8,778,bin/iaps/175.jpg,2,512,bin/iaps/179.jpg,0.0,0.0,1.0,-0.0047296141,0.33333333,6.356808,   6.6901414e+00,   6.3979110e+00,2.0,   1.0000000e+00,0.13333333,-0.23809524,-0.16666667,18.0,False,709,1.0
87158234,9,3.0,bin/iaps/179.jpg,2,246,bin/iaps/197.jpg,8,778,bin/iaps/175.jpg,2,512,bin/iaps/197.jpg,0.0,1.0,0.0,0.041378714,0.5,6.3058729,   6.8058729e+00,   6.3058729e+00,2.0,   3.0000000e+00,-0.3,-0.071428571,0.25,26.0,True,1357,3.0
87158234,10,4.0,bin/iaps/179.jpg,2,246,bin/iaps/197.jpg,8,512,bin/iaps/175.jpg,2,778,bin/iaps/197.jpg,0.0,1.0,0.0,0.015986766,0.66666667,6.7912773,   7.4579440e+00,   6.7912773e+00,2.0,   3.0000000e+00,-0.13333333,0.095238095,0.41666667,26.0,True,1069,2.0
87158234,11,5.0,bin/iaps/179.jpg,2,778,bin/iaps/197.jpg,8,246,bin/iaps/175.jpg,2,512,bin/iaps/197.jpg,0.0,1.0,0.0,0.0049876509,0.75,7.089782,   7.8397820e+00,   7.0897820e+00,2.0,   3.0000000e+00,-0.05,0.17857143,0.5,26.0,True,702,1.0
87158234,12,6.0,bin/iaps/179.jpg,2,778,bin/iaps/197.jpg,8,512,bin/iaps/175.jpg,2,246,bin/iaps/197.jpg,0.0,1.0,0.0,5.6510733e-05,0.8,7.2860594,   8.0860594e+00,   7.2892158e+00,2.0,   3.0000000e+00,-2.220446e-16,0.22857143,0.55,26.0,False,795,2.0
87158234,13,0.0,bin/iaps/179.jpg,2,246,bin/iaps/209.jpg,5,778,bin/iaps/175.jpg,2,512,bin/iaps/175.jpg,0.0,1.0,0.0,-0.027111895,0.57142857,6.2373823,   6.8088109e+00,   6.3058729e+00,5.0,   1.0000000e+00,0.37142857,0.071428571,0.32142857,15.0,False,1005,2.0
87158234,14,1.0,bin/iaps/179.jpg,2,246,bin/iaps/209.jpg,5,512,bin/iaps/175.jpg,2,778,bin/iaps/209.jpg,1.0,0.0,0.0,0.046492978,0.5,6.0809862,   6.5809862e+00,   6.0809862e+00,5.0,   2.0000000e+00,0.0,0.0,0.25,32.0,False,752,2.0
87158234,15,2.0,bin/iaps/179.jpg,2,778,bin/iaps/209.jpg,5,246,bin/iaps/175.jpg,2,512,bin/iaps/209.jpg,1.0,0.0,0.0,0.018215202,0.33333333,5.6191264,   5.9524598e+00,   5.6191264e+00,5.0,   2.0000000e+00,-0.16666667,-0.16666667,0.083333333,32.0,False,604,1.0
87158234,16,3.0,bin/iaps/179.jpg,2,512,bin/iaps/209.jpg,5,246,bin/iaps/175.jpg,2,778,bin/iaps/175.jpg,0.0,1.0,0.0,-0.011777144,0.5,5.4382496,   5.9382496e+00,   5.4559153e+00,5.0,   1.0000000e+00,0.3,0.25,0.25,15.0,True,1156,3.0
87158234,17,4.0,bin/iaps/179.jpg,2,778,bin/iaps/209.jpg,5,512,bin/iaps/175.jpg,2,246,bin/iaps/175.jpg,0.0,1.0,0.0,-0.012843621,0.55555556,5.6315004,   6.1870560e+00,   5.6507659e+00,5.0,   1.0000000e+00,0.35555556,0.30555556,0.30555556,15.0,False,798,1.0
87158234,18,5.0,bin/iaps/179.jpg,2,246,bin/iaps/209.jpg,5,512,bin/iaps/175.jpg,2,778,bin/iaps/175.jpg,0.0,1.0,0.0,-0.014146473,0.5,5.4147325,   5.9147325e+00,   5.4359522e+00,5.0,   1.0000000e+00,0.3,0.25,0.25,15.0,True,944,3.0
87158234,19,0.0,bin/iaps/157.jpg,2,778,bin/iaps/209.jpg,5,246,bin/iaps/175.jpg,2,512,bin/iaps/175.jpg,0.0,1.0,0.0,-0.032816037,0.54545455,6.1087572,   6.6542118e+00,   6.1874791e+00,2.0,   1.0000000e+00,0.34545455,0.045454545,0.29545455,15.0,False,846,2.0
87158234,20,1.0,bin/iaps/157.jpg,2,246,bin/iaps/209.jpg,5,778,bin/iaps/175.jpg,2,512,bin/iaps/175.jpg,0.0,1.0,0.0,-0.034842443,0.5,5.9634309,   6.4634309e+00,   6.0470867e+00,2.0,   1.0000000e+00,0.3,0.0,0.25,15.0,False,1166,2.0
87158234,21,2.0,bin/iaps/157.jpg,2,778,bin/iaps/209.jpg,5,246,bin/iaps/175.jpg,2,512,bin/iaps/157.jpg,1.0,0.0,0.0,0.050877214,0.5,5.9378737,   6.4378737e+00,   5.9378737e+00,2.0,   1.0000000e+00,0.3,0.038461538,0.25,6.0,False,1099,3.0
87158234,22,3.0,bin/iaps/157.jpg,2,778,bin/iaps/209.jpg,5,512,bin/iaps/175.jpg,2,246,bin/iaps/175.jpg,0.0,1.0,0.0,-0.022545423,0.46153846,5.4076966,   5.8692351e+00,   5.4513709e+00,2.0,   1.0000000e+00,0.26153846,0.12820513,0.21153846,15.0,False,1250,1.0
87158234,23,4.0,bin/iaps/157.jpg,2,512,bin/iaps/209.jpg,5,778,bin/iaps/175.jpg,2,246,bin/iaps/157.jpg,1.0,0.0,0.0,0.021732963,0.33333333,5.348524,   5.6818574e+00,   5.3485240e+00,2.0,   1.0000000e+00,0.13333333,-0.095238095,0.083333333,6.0,False,1185,2.0
87158234,24,5.0,bin/iaps/157.jpg,2,512,bin/iaps/209.jpg,5,246,bin/iaps/175.jpg,2,778,bin/iaps/157.jpg,1.0,0.0,0.0,0.0082334777,0.25,5.1704507,   5.4204507e+00,   5.1704507e+00,2.0,   1.0000000e+00,0.05,-0.17857143,0.0,6.0,False,999,2.0
87158234,25,6.0,bin/iaps/157.jpg,2,512,bin/iaps/209.jpg,5,778,bin/iaps/175.jpg,2,246,bin/iaps/157.jpg,1.0,0.0,0.0,0.0020954259,0.2,5.0892539,   5.2892539e+00,   5.0983552e+00,2.0,   1.0000000e+00,1.6653345e-16,-0.22857143,-0.05,6.0,False,1732,2.0
87158234,26,7.0,bin/iaps/157.jpg,2,246,bin/iaps/209.jpg,5,778,bin/iaps/175.jpg,2,512,bin/iaps/175.jpg,0.0,1.0,0.0,-0.011646105,0.42857143,5.0355425,   5.4641139e+00,   5.0597734e+00,2.0,   1.0000000e+00,0.22857143,0.17857143,0.26190476,15.0,True,759,2.0
87158234,27,8.0,bin/iaps/157.jpg,2,246,bin/iaps/209.jpg,5,778,bin/iaps/175.jpg,2,512,bin/iaps/175.jpg,0.0,1.0,0.0,-0.012055311,0.46666667,5.1469657,   5.6136324e+00,   5.1716049e+00,2.0,   1.0000000e+00,0.26666667,0.21666667,0.3,15.0,False,553,2.0
87158234,28,0.0,bin/iaps/215.jpg,5,512,bin/iaps/209.jpg,5,778,bin/iaps/175.jpg,2,246,bin/iaps/175.jpg,0.0,1.0,0.0,-0.03773696,0.4375,5.7671736,   6.2046736e+00,   5.8575355e+00,2.0,   1.0000000e+00,0.2375,-0.0625,0.1875,15.0,False,726,1.0
87158234,29,1.0,bin/iaps/215.jpg,5,778,bin/iaps/209.jpg,5,246,bin/iaps/175.jpg,2,512,bin/iaps/215.jpg,1.0,0.0,0.0,0.053630543,0.5,5.7932644,   6.2932644e+00,   5.7932644e+00,5.0,   2.0000000e+00,0.0,0.088235294,0.25,36.0,True,748,3.0
87158234,30,2.0,bin/iaps/215.jpg,5,778,bin/iaps/209.jpg,5,246,bin/iaps/175.jpg,2,512,bin/iaps/215.jpg,1.0,0.0,0.0,0.02136364,0.66666667,6.3854657,   7.0521324e+00,   6.3854657e+00,5.0,   2.0000000e+00,0.16666667,0.25490196,0.41666667,36.0,False,709,3.0
87158234,31,3.0,bin/iaps/215.jpg,5,246,bin/iaps/209.jpg,5,778,bin/iaps/175.jpg,2,512,bin/iaps/215.jpg,1.0,0.0,0.0,0.012084372,0.5,5.7096521,   6.2096521e+00,   5.7096521e+00,5.0,   2.0000000e+00,0.0,0.088235294,0.25,36.0,False,780,1.0
87158234,32,4.0,bin/iaps/215.jpg,5,246,bin/iaps/209.jpg,5,778,bin/iaps/175.jpg,2,512,bin/iaps/175.jpg,0.0,1.0,0.0,-0.014991074,0.41176471,5.3740759,   5.7858406e+00,   5.3991939e+00,2.0,   1.0000000e+00,0.21176471,0.011764706,0.16176471,15.0,True,994,2.0
87158234,33,5.0,bin/iaps/215.jpg,5,778,bin/iaps/209.jpg,5,246,bin/iaps/175.jpg,2,512,bin/iaps/175.jpg,0.0,1.0,0.0,-0.015202577,0.44444444,5.4494199,   5.8938644e+00,   5.4748281e+00,2.0,   1.0000000e+00,0.24444444,0.044444444,0.19444444,15.0,False,1041,2.0
87158234,34,0.0,bin/iaps/147.jpg,8,512,bin/iaps/209.jpg,5,778,bin/iaps/175.jpg,2,246,bin/iaps/147.jpg,1.0,0.0,0.0,0.053815631,0.5,5.7998864,   6.2998864e+00,   5.7998864e+00,8.0,   3.0000000e+00,-0.3,0.078947368,0.25,2.0,True,952,2.0
87158234,35,1.0,bin/iaps/147.jpg,8,778,bin/iaps/209.jpg,5,512,bin/iaps/175.jpg,2,246,bin/iaps/147.jpg,1.0,0.0,0.0,0.021477649,0.66666667,6.3903717,   7.0570384e+00,   6.3903717e+00,8.0,   3.0000000e+00,-0.13333333,0.24561404,0.41666667,2.0,True,869,3.0
87158234,36,2.0,bin/iaps/147.jpg,8,512,bin/iaps/209.jpg,5,246,bin/iaps/175.jpg,2,778,bin/iaps/147.jpg,1.0,0.0,0.0,0.0070832588,0.75,6.7546575,   7.5046575e+00,   6.7546575e+00,8.0,   3.0000000e+00,-0.05,0.32894737,0.5,2.0,True,665,2.0
87158234,37,3.0,bin/iaps/147.jpg,8,246,bin/iaps/209.jpg,5,778,bin/iaps/175.jpg,2,512,bin/iaps/147.jpg,1.0,0.0,0.0,0.00040667333,0.8,6.9946305,   7.7946305e+00,   6.9997961e+00,8.0,   3.0000000e+00,-2.220446e-16,0.37894737,0.55,2.0,True,726,1.0
87158234,38,4.0,bin/iaps/147.jpg,8,246,bin/iaps/209.jpg,5,778,bin/iaps/175.jpg,2,512,bin/iaps/147.jpg,1.0,0.0,0.0,-0.0029958224,0.83333333,7.1619098,   7.9952431e+00,   7.1712413e+00,8.0,   3.0000000e+00,0.033333333,0.4122807,0.58333333,2.0,True,642,1.0
87158234,39,5.0,bin/iaps/147.jpg,8,246,bin/iaps/209.jpg,5,512,bin/iaps/175.jpg,2,778,bin/iaps/147.jpg,1.0,0.0,0.0,-0.0048742967,0.85714286,7.2835538,   8.1406966e+00,   7.2950073e+00,8.0,   3.0000000e+00,0.057142857,0.43609023,0.60714286,2.0,False,534,1.0
87158234,40,0.0,bin/iaps/147.jpg,8,778,bin/iaps/167.jpg,5,512,bin/iaps/175.jpg,2,246,bin/iaps/147.jpg,0.0,1.0,0.0,-0.016335385,0.75,7.0035267,   7.7535267e+00,   7.0513266e+00,5.0,   3.0000000e+00,-0.05,0.25,0.32894737,2.0,True,689,3.0
87158234,1,0.0,bin/iaps/186.jpg,2,246,bin/iaps/211.jpg,5,512,bin/iaps/173.jpg,8,778,bin/iaps/173.jpg,0.0,0.0,1.0,-9.1801162e-09,0.5,6.5472319,   7.0472319e+00,   6.5472319e+00,5.0,   3.0000000e+00,-0.3,0.0,0.0,14.0,False,1859,3.0
87158234,2,1.0,bin/iaps/186.jpg,2,512,bin/iaps/211.jpg,5,246,bin/iaps/173.jpg,8,778,bin/iaps/211.jpg,1.0,0.0,0.0,0.014737416,0.5,6.2368085,   6.7368085e+00,   6.2368086e+00,5.0,   2.0000000e+00,0.0,0.0,0.16666667,33.0,True,964,1.0
87158234,3,2.0,bin/iaps/186.jpg,2,512,bin/iaps/211.jpg,5,246,bin/iaps/173.jpg,8,778,bin/iaps/211.jpg,1.0,0.0,0.0,-0.0045482592,0.66666667,6.7340035,   7.4006702e+00,   6.7574378e+00,5.0,   2.0000000e+00,0.16666667,0.16666667,0.33333333,33.0,True,614,1.0
87158234,4,3.0,bin/iaps/186.jpg,2,246,bin/iaps/211.jpg,5,778,bin/iaps/173.jpg,8,512,bin/iaps/211.jpg,1.0,0.0,0.0,-0.010769185,0.75,7.0427334,   7.7927334e+00,   7.0716180e+00,5.0,   2.0000000e+00,0.25,0.25,0.41666667,33.0,False,870,3.0
87158234,5,4.0,bin/iaps/186.jpg,2,246,bin/iaps/211.jpg,5,512,bin/iaps/173.jpg,8,778,bin/iaps/211.jpg,1.0,0.0,0.0,-0.024003885,0.6,6.4517733,   7.0517733e+00,   6.5071857e+00,5.0,   2.0000000e+00,0.1,0.1,0.26666667,33.0,True,749,2.0
87158234,6,0.0,bin/iaps/186.jpg,2,778,bin/iaps/211.jpg,5,512,bin/iaps/177.jpg,5,246,bin/iaps/177.jpg,1.0,0.0,0.0,0.014842401,0.5,6.9537308,   7.4537308e+00,   6.9537309e+00,5.0,   2.0000000e+00,0.0,-0.16666667,0.0,17.0,False,1180,1.0
87158234,7,1.0,bin/iaps/186.jpg,2,246,bin/iaps/211.jpg,5,778,bin/iaps/177.jpg,5,512,bin/iaps/177.jpg,1.0,0.0,0.0,-0.0048394253,0.33333333,6.6934695,   7.0268028e+00,   6.7272387e+00,5.0,   2.0000000e+00,-0.16666667,-0.33333333,-0.16666667,17.0,False,752,2.0
87158234,8,2.0,bin/iaps/186.jpg,2,512,bin/iaps/211.jpg,5,246,bin/iaps/177.jpg,5,778,bin/iaps/211.jpg,0.0,1.0,0.0,-0.020670944,0.66666667,6.5979848,   7.2646515e+00,   6.6514607e+00,5.0,   2.0000000e+00,0.16666667,0.16666667,0.41666667,33.0,False,750,1.0
87158234,9,3.0,bin/iaps/186.jpg,2,778,bin/iaps/211.jpg,5,246,bin/iaps/177.jpg,5,512,bin/iaps/211.jpg,0.0,1.0,0.0,-0.027111989,0.57142857,6.2373838,   6.8088123e+00,   6.3058746e+00,5.0,   2.0000000e+00,0.071428571,0.071428571,0.32142857,33.0,True,1140,1.0
87158234,10,4.0,bin/iaps/186.jpg,2,778,bin/iaps/211.jpg,5,246,bin/iaps/177.jpg,5,512,bin/iaps/211.jpg,0.0,1.0,0.0,-0.026614566,0.625,6.4129042,   7.0379042e+00,   6.4780247e+00,5.0,   2.0000000e+00,0.125,0.125,0.375,33.0,False,682,1.0
87158234,11,5.0,bin/iaps/186.jpg,2,512,bin/iaps/211.jpg,5,778,bin/iaps/177.jpg,5,246,bin/iaps/211.jpg,0.0,0.0,1.0,-0.030730146,0.55555556,6.1618351,   6.7173906e+00,   6.2367354e+00,5.0,   2.0000000e+00,0.055555556,0.055555556,0.30555556,33.0,True,668,3.0
87158234,12,0.0,bin/iaps/186.jpg,2,778,bin/iaps/213.jpg,5,246,bin/iaps/177.jpg,5,512,bin/iaps/213.jpg,1.0,0.0,0.0,0.020062324,0.5,6.134042,   6.6340420e+00,   6.1340421e+00,5.0,   2.0000000e+00,0.0,0.0,0.25,34.0,True,1368,1.0
87158234,13,1.0,bin/iaps/186.jpg,2,512,bin/iaps/213.jpg,5,246,bin/iaps/177.jpg,5,778,bin/iaps/213.jpg,1.0,0.0,0.0,-0.0010857706,0.66666667,6.6586036,   7.3252703e+00,   6.6823041e+00,5.0,   2.0000000e+00,0.16666667,0.16666667,0.41666667,34.0,False,1162,1.0
87158234,14,2.0,bin/iaps/186.jpg,2,778,bin/iaps/213.jpg,5,246,bin/iaps/177.jpg,5,512,bin/iaps/213.jpg,1.0,0.0,0.0,-0.016613487,0.5,6.0607811,   6.5607811e+00,   6.1160633e+00,5.0,   2.0000000e+00,0.0,0.0,0.25,34.0,False,1005,1.0
87158234,15,3.0,bin/iaps/186.jpg,2,512,bin/iaps/213.jpg,5,246,bin/iaps/177.jpg,5,778,bin/iaps/213.jpg,1.0,0.0,0.0,-0.025396256,0.4,5.7813145,   6.1813145e+00,   5.8525941e+00,5.0,   2.0000000e+00,-0.1,-0.1,0.15,34.0,True,1151,1.0
87158234,16,4.0,bin/iaps/186.jpg,2,512,bin/iaps/213.jpg,5,246,bin/iaps/177.jpg,5,778,bin/iaps/186.jpg,0.0,1.0,0.0,0.044068355,0.5,6.0983785,   6.5983785e+00,   6.0983785e+00,5.0,   1.0000000e+00,0.3,0.0,0.25,22.0,False,1871,2.0
87158234,17,5.0,bin/iaps/186.jpg,2,512,bin/iaps/213.jpg,5,246,bin/iaps/177.jpg,5,778,bin/iaps/186.jpg,0.0,1.0,0.0,0.015779782,0.33333333,5.6387411,   5.9720744e+00,   5.6387411e+00,5.0,   1.0000000e+00,0.13333333,-0.16666667,0.083333333,22.0,False,480,2.0
87158234,18,6.0,bin/iaps/186.jpg,2,512,bin/iaps/213.jpg,5,778,bin/iaps/177.jpg,5,246,bin/iaps/186.jpg,0.0,0.0,1.0,0.0035463435,0.25,5.4761445,   5.7261445e+00,   5.4761446e+00,5.0,   1.0000000e+00,0.05,-0.25,0.0,22.0,False,774,2.0
87158234,19,0.0,bin/iaps/195.jpg,2,246,bin/iaps/213.jpg,5,512,bin/iaps/177.jpg,5,778,bin/iaps/213.jpg,0.0,1.0,0.0,-0.026884695,0.5,6.0274254,   6.5274254e+00,   6.0983785e+00,5.0,   2.0000000e+00,0.0,0.0,0.25,34.0,True,1330,2.0
87158234,20,1.0,bin/iaps/195.jpg,2,512,bin/iaps/213.jpg,5,246,bin/iaps/177.jpg,5,778,bin/iaps/213.jpg,0.0,1.0,0.0,-0.027111989,0.57142857,6.2373838,   6.8088123e+00,   6.3058746e+00,5.0,   2.0000000e+00,0.071428571,0.071428571,0.32142857,34.0,False,891,1.0
87158234,21,2.0,bin/iaps/195.jpg,2,512,bin/iaps/213.jpg,5,246,bin/iaps/177.jpg,5,778,bin/iaps/177.jpg,0.0,0.0,1.0,-0.015278359,0.25,6.0192161,   6.2692161e+00,   6.0809875e+00,5.0,   2.0000000e+00,-0.25,-0.25,-0.25,17.0,True,1077,3.0
87158234,22,3.0,bin/iaps/195.jpg,2,778,bin/iaps/213.jpg,5,512,bin/iaps/177.jpg,5,246,bin/iaps/177.jpg,0.0,0.0,1.0,-0.017963454,0.4,6.2125401,   6.6125401e+00,   6.2773437e+00,5.0,   2.0000000e+00,-0.1,-0.1,-0.1,17.0,True,797,1.0
87158234,23,4.0,bin/iaps/195.jpg,2,246,bin/iaps/213.jpg,5,512,bin/iaps/177.jpg,5,778,bin/iaps/177.jpg,0.0,1.0,0.0,-0.019500372,0.5,6.4045587,   6.9045587e+00,   6.4685459e+00,5.0,   2.0000000e+00,0.0,0.0,0.0,17.0,False,1431,3.0
87158234,24,5.0,bin/iaps/195.jpg,2,246,bin/iaps/213.jpg,5,778,bin/iaps/177.jpg,5,512,bin/iaps/213.jpg,0.0,1.0,0.0,-0.025881673,0.5,6.239985,   6.7399850e+00,   6.3148706e+00,5.0,   2.0000000e+00,0.0,0.0,0.071428571,34.0,True,864,3.0
87158234,25,0.0,bin/iaps/166.jpg,2,246,bin/iaps/213.jpg,5,512,bin/iaps/177.jpg,5,778,bin/iaps/166.jpg,1.0,0.0,0.0,0.04640234,0.5,6.450035,   6.9500350e+00,   6.4500350e+00,2.0,   1.0000000e+00,0.3,-0.055555556,0.071428571,9.0,False,1364,1.0
87158234,26,1.0,bin/iaps/166.jpg,2,246,bin/iaps/213.jpg,5,778,bin/iaps/177.jpg,5,512,bin/iaps/166.jpg,1.0,0.0,0.0,0.021593762,0.33333333,6.0779082,   6.4112416e+00,   6.0779082e+00,2.0,   1.0000000e+00,0.13333333,-0.22222222,-0.095238095,9.0,False,497,1.0
87158234,27,2.0,bin/iaps/166.jpg,2,512,bin/iaps/213.jpg,5,778,bin/iaps/177.jpg,5,246,bin/iaps/213.jpg,0.0,1.0,0.0,-0.007993181,0.55555556,5.9345402,   6.4900958e+00,   5.9531905e+00,5.0,   2.0000000e+00,0.055555556,0.12698413,0.30555556,34.0,False,1238,3.0
87158234,28,3.0,bin/iaps/166.jpg,2,512,bin/iaps/213.jpg,5,246,bin/iaps/177.jpg,5,778,bin/iaps/166.jpg,1.0,0.0,0.0,0.011572105,0.25,5.7598515,   6.0098515e+00,   5.7598515e+00,2.0,   1.0000000e+00,0.05,-0.25,-0.17857143,9.0,False,616,2.0
87158234,29,4.0,bin/iaps/166.jpg,2,778,bin/iaps/213.jpg,5,246,bin/iaps/177.jpg,5,512,bin/iaps/213.jpg,0.0,1.0,0.0,-0.0062388302,0.5,5.6894556,   6.1894556e+00,   5.7018478e+00,5.0,   2.0000000e+00,0.0,0.071428571,0.3,34.0,False,646,1.0
87158234,30,5.0,bin/iaps/166.jpg,2,778,bin/iaps/213.jpg,5,512,bin/iaps/177.jpg,5,246,bin/iaps/213.jpg,0.0,1.0,0.0,-0.0067537396,0.45454545,5.5415781,   5.9961236e+00,   5.5547905e+00,5.0,   2.0000000e+00,-0.045454545,0.025974026,0.25454545,34.0,False,1121,2.0
87158234,31,6.0,bin/iaps/166.jpg,2,778,bin/iaps/213.jpg,5,246,bin/iaps/177.jpg,5,512,bin/iaps/177.jpg,0.0,1.0,0.0,0.00043031308,0.42857143,5.4365512,   5.8651226e+00,   5.4427800e+00,5.0,   2.0000000e+00,-0.071428571,0.011904762,0.22857143,17.0,False,749,2.0
87158234,32,7.0,bin/iaps/166.jpg,2,246,bin/iaps/213.jpg,5,778,bin/iaps/177.jpg,5,512,bin/iaps/177.jpg,0.0,0.0,1.0,-0.0011315072,0.375,5.2854602,   5.6604602e+00,   5.2942060e+00,5.0,   2.0000000e+00,-0.125,-0.041666667,0.175,17.0,False,1056,2.0
87158234,33,0.0,bin/iaps/166.jpg,2,246,bin/iaps/171.jpg,2,512,bin/iaps/177.jpg,5,778,bin/iaps/171.jpg,1.0,0.0,0.0,0.05423987,0.5,5.6318036,   6.1318036e+00,   5.6318036e+00,2.0,   1.0000000e+00,0.3,0.16666667,0.3,13.0,True,1130,2.0
87158234,34,1.0,bin/iaps/166.jpg,2,246,bin/iaps/171.jpg,2,778,bin/iaps/177.jpg,5,512,bin/iaps/171.jpg,1.0,0.0,0.0,0.021797718,0.66666667,6.2585803,   6.9252470e+00,   6.2585803e+00,2.0,   1.0000000e+00,0.46666667,0.33333333,0.46666667,13.0,False,677,3.0
87158234,35,2.0,bin/iaps/166.jpg,2,512,bin/iaps/171.jpg,2,246,bin/iaps/177.jpg,5,778,bin/iaps/171.jpg,1.0,0.0,0.0,0.013014456,0.5,5.5487308,   6.0487308e+00,   5.5487308e+00,2.0,   1.0000000e+00,0.3,0.16666667,0.3,13.0,False,780,1.0
87158234,36,3.0,bin/iaps/166.jpg,2,246,bin/iaps/171.jpg,2,512,bin/iaps/177.jpg,5,778,bin/iaps/171.jpg,1.0,0.0,0.0,0.0059888351,0.4,5.2118999,   5.6118999e+00,   5.2118999e+00,2.0,   1.0000000e+00,0.2,0.066666667,0.2,13.0,True,872,2.0
87158234,37,4.0,bin/iaps/166.jpg,2,512,bin/iaps/171.jpg,2,778,bin/iaps/177.jpg,5,246,bin/iaps/171.jpg,1.0,0.0,0.0,0.0016627168,0.5,5.5107544,   6.0107544e+00,   5.5130944e+00,2.0,   1.0000000e+00,0.3,0.16666667,0.3,13.0,False,1409,3.0
87158234,38,5.0,bin/iaps/166.jpg,2,778,bin/iaps/171.jpg,2,246,bin/iaps/177.jpg,5,512,bin/iaps/177.jpg,0.0,1.0,0.0,-0.0046760871,0.33333333,5.2619082,   5.5952415e+00,   5.2720670e+00,2.0,   2.0000000e+00,-0.16666667,-0.095238095,0.13333333,17.0,False,1558,2.0
87158234,39,6.0,bin/iaps/166.jpg,2,778,bin/iaps/171.jpg,2,246,bin/iaps/177.jpg,5,512,bin/iaps/171.jpg,1.0,0.0,0.0,-0.00050011267,0.42857143,5.194182,   5.6227535e+00,   5.2004916e+00,2.0,   1.0000000e+00,0.22857143,0.12857143,0.22857143,13.0,False,538,1.0
87158234,40,0.0,bin/iaps/166.jpg,2,778,bin/iaps/171.jpg,2,246,bin/iaps/160.jpg,8,512,bin/iaps/160.jpg,1.0,0.0,0.0,0.052880389,0.5,5.722258,   6.2222580e+00,   5.7222580e+00,8.0,   3.0000000e+00,-0.3,0.125,0.3,7.0,True,1331,2.0
87158234,1,0.0,bin/iaps/199.jpg,5,778,bin/iaps/214.jpg,2,246,bin/iaps/193.jpg,8,512,bin/iaps/214.jpg,0.0,0.0,1.0,-4.6819504e-08,0.5,6.5472318,   7.0472318e+00,   6.5472319e+00,8.0,   1.0000000e+00,0.3,0.0,0.0,35.0,False,1251,1.0
87158234,2,1.0,bin/iaps/199.jpg,5,246,bin/iaps/214.jpg,2,778,bin/iaps/193.jpg,8,512,bin/iaps/193.jpg,1.0,0.0,0.0,0.014737453,0.5,6.2368076,   6.7368076e+00,   6.2368076e+00,8.0,   3.0000000e+00,-0.3,0.0,0.16666667,24.0,True,1775,2.0
87158234,3,2.0,bin/iaps/199.jpg,5,246,bin/iaps/214.jpg,2,512,bin/iaps/193.jpg,8,778,bin/iaps/193.jpg,1.0,0.0,0.0,-0.0045481762,0.66666667,6.7340016,   7.4006683e+00,   6.7574358e+00,8.0,   3.0000000e+00,-0.13333333,0.16666667,0.33333333,24.0,True,964,3.0
87158234,4,3.0,bin/iaps/199.jpg,5,778,bin/iaps/214.jpg,2,246,bin/iaps/193.jpg,8,512,bin/iaps/199.jpg,0.0,1.0,0.0,0.018115318,0.5,7.0716156,   7.5716156e+00,   7.0716156e+00,8.0,   2.0000000e+00,0.0,-0.25,0.16666667,27.0,False,1406,3.0
87158234,5,4.0,bin/iaps/199.jpg,5,246,bin/iaps/214.jpg,2,778,bin/iaps/193.jpg,8,512,bin/iaps/214.jpg,0.0,0.0,1.0,0.0019189312,0.33333333,6.7995737,   7.1329070e+00,   6.7995737e+00,8.0,   1.0000000e+00,0.13333333,-0.41666667,0.0,35.0,False,1321,3.0
87158234,6,0.0,bin/iaps/199.jpg,5,778,bin/iaps/214.jpg,2,246,bin/iaps/145.jpg,8,512,bin/iaps/145.jpg,1.0,0.0,0.0,0.03904535,0.5,5.7283548,   6.2283548e+00,   5.7283548e+00,8.0,   3.0000000e+00,-0.3,0.16666667,0.25,1.0,True,1886,2.0
87158234,7,1.0,bin/iaps/199.jpg,5,778,bin/iaps/214.jpg,2,246,bin/iaps/145.jpg,8,512,bin/iaps/145.jpg,1.0,0.0,0.0,0.010855631,0.66666667,6.3345418,   7.0012085e+00,   6.3345418e+00,8.0,   3.0000000e+00,-0.13333333,0.33333333,0.41666667,1.0,False,545,2.0
87158234,8,2.0,bin/iaps/199.jpg,5,246,bin/iaps/214.jpg,2,778,bin/iaps/145.jpg,8,512,bin/iaps/214.jpg,0.0,0.0,1.0,-0.0081881481,0.25,5.6404228,   5.8904228e+00,   5.6586340e+00,8.0,   1.0000000e+00,0.05,-0.25,-0.083333333,35.0,False,863,3.0
87158234,9,3.0,bin/iaps/199.jpg,5,778,bin/iaps/214.jpg,2,512,bin/iaps/145.jpg,8,246,bin/iaps/214.jpg,0.0,0.0,1.0,-0.013428277,0.2,5.574742,   5.7747420e+00,   5.6007412e+00,8.0,   1.0000000e+00,1.6653345e-16,-0.3,-0.13333333,35.0,True,822,2.0
87158234,10,4.0,bin/iaps/199.jpg,5,246,bin/iaps/214.jpg,2,778,bin/iaps/145.jpg,8,512,bin/iaps/214.jpg,0.0,0.0,1.0,-0.015460163,0.33333333,5.7403983,   6.0737316e+00,   5.7695544e+00,8.0,   1.0000000e+00,0.13333333,-0.16666667,0.0,35.0,False,732,3.0
87158234,11,5.0,bin/iaps/199.jpg,5,512,bin/iaps/214.jpg,2,778,bin/iaps/145.jpg,8,246,bin/iaps/145.jpg,1.0,0.0,0.0,0.0028566517,0.5,5.6779117,   6.1779117e+00,   5.6899623e+00,8.0,   3.0000000e+00,-0.3,0.16666667,0.21428571,1.0,True,979,1.0
87158234,12,0.0,bin/iaps/151.jpg,8,246,bin/iaps/214.jpg,2,778,bin/iaps/145.jpg,8,512,bin/iaps/145.jpg,0.0,1.0,0.0,-0.016558476,0.6,6.3842158,   6.9842158e+00,   6.4410941e+00,8.0,   3.0000000e+00,-0.2,0.1,0.31428571,1.0,False,687,2.0
87158234,13,1.0,bin/iaps/151.jpg,8,778,bin/iaps/214.jpg,2,246,bin/iaps/145.jpg,8,512,bin/iaps/145.jpg,0.0,1.0,0.0,-0.023077724,0.5,6.0503057,   6.5503057e+00,   6.1223886e+00,8.0,   3.0000000e+00,-0.3,0.0,0.21428571,1.0,True,706,2.0
87158234,14,2.0,bin/iaps/151.jpg,8,778,bin/iaps/214.jpg,2,246,bin/iaps/145.jpg,8,512,bin/iaps/145.jpg,0.0,1.0,0.0,-0.023743541,0.57142857,6.2575626,   6.8289912e+00,   6.3272436e+00,8.0,   3.0000000e+00,-0.22857143,0.071428571,0.28571429,1.0,True,571,2.0
87158234,15,3.0,bin/iaps/151.jpg,8,246,bin/iaps/214.jpg,2,512,bin/iaps/145.jpg,8,778,bin/iaps/145.jpg,0.0,1.0,0.0,-0.023646983,0.625,6.4313738,   7.0563738e+00,   6.4977277e+00,8.0,   3.0000000e+00,-0.175,0.125,0.33928571,1.0,True,736,3.0
87158234,16,4.0,bin/iaps/151.jpg,8,778,bin/iaps/214.jpg,2,246,bin/iaps/145.jpg,8,512,bin/iaps/145.jpg,0.0,1.0,0.0,-0.023145315,0.66666667,6.576781,   7.2434477e+00,   6.6395436e+00,8.0,   3.0000000e+00,-0.13333333,0.16666667,0.38095238,1.0,True,869,2.0
87158234,17,5.0,bin/iaps/151.jpg,8,246,bin/iaps/214.jpg,2,778,bin/iaps/145.jpg,8,512,bin/iaps/145.jpg,0.0,1.0,0.0,-0.022450689,0.7,6.6989415,   7.3989415e+00,   6.7581705e+00,8.0,   3.0000000e+00,-0.1,0.2,0.41428571,1.0,True,1568,2.0
87158234,18,6.0,bin/iaps/151.jpg,8,246,bin/iaps/214.jpg,2,778,bin/iaps/145.jpg,8,512,bin/iaps/145.jpg,0.0,1.0,0.0,-0.021681883,0.72727273,6.8022171,   7.5294899e+00,   6.8581157e+00,8.0,   3.0000000e+00,-0.072727273,0.22727273,0.44155844,1.0,True,619,2.0
87158234,19,0.0,bin/iaps/151.jpg,8,778,bin/iaps/214.jpg,2,246,bin/iaps/184.jpg,8,512,bin/iaps/184.jpg,1.0,0.0,0.0,0.024549148,0.5,6.1585384,   6.6585384e+00,   6.1585384e+00,8.0,   3.0000000e+00,-0.3,0.0,0.21428571,21.0,True,1454,2.0
87158234,20,1.0,bin/iaps/151.jpg,8,778,bin/iaps/214.jpg,2,512,bin/iaps/184.jpg,8,246,bin/iaps/184.jpg,1.0,0.0,0.0,0.0017986555,0.66666667,6.6771741,   7.3438407e+00,   6.7015724e+00,8.0,   3.0000000e+00,-0.13333333,0.16666667,0.38095238,21.0,True,705,1.0
87158234,21,2.0,bin/iaps/151.jpg,8,778,bin/iaps/214.jpg,2,246,bin/iaps/184.jpg,8,512,bin/iaps/184.jpg,1.0,0.0,0.0,-0.0067093827,0.75,6.9979414,   7.7479414e+00,   7.0282337e+00,8.0,   3.0000000e+00,-0.05,0.25,0.46428571,21.0,True,776,2.0
87158234,22,3.0,bin/iaps/151.jpg,8,778,bin/iaps/214.jpg,2,512,bin/iaps/184.jpg,8,246,bin/iaps/184.jpg,1.0,0.0,0.0,-0.0096817235,0.8,7.209444,   8.0094440e+00,   7.2394702e+00,8.0,   3.0000000e+00,-2.220446e-16,0.3,0.51428571,21.0,True,940,1.0
87158234,23,4.0,bin/iaps/151.jpg,8,512,bin/iaps/214.jpg,2,246,bin/iaps/184.jpg,8,778,bin/iaps/184.jpg,1.0,0.0,0.0,-0.010585252,0.83333333,7.3569288,   8.1902621e+00,   7.3849346e+00,8.0,   3.0000000e+00,0.033333333,0.33333333,0.54761905,21.0,False,994,3.0
87158234,24,5.0,bin/iaps/151.jpg,8,778,bin/iaps/214.jpg,2,246,bin/iaps/184.jpg,8,512,bin/iaps/184.jpg,1.0,0.0,0.0,-0.01829865,0.71428571,6.7956422,   7.5099279e+00,   6.8469772e+00,8.0,   3.0000000e+00,-0.085714286,0.21428571,0.42857143,21.0,True,924,2.0
87158234,25,6.0,bin/iaps/151.jpg,8,512,bin/iaps/214.jpg,2,778,bin/iaps/184.jpg,8,246,bin/iaps/184.jpg,1.0,0.0,0.0,-0.017989197,0.75,6.9376337,   7.6876337e+00,   6.9854778e+00,8.0,   3.0000000e+00,-0.05,0.25,0.46428571,21.0,True,764,1.0
87158234,26,0.0,bin/iaps/203.jpg,5,246,bin/iaps/214.jpg,2,778,bin/iaps/184.jpg,8,512,bin/iaps/203.jpg,1.0,0.0,0.0,0.027080351,0.5,7.0959955,   7.5959955e+00,   7.0959955e+00,5.0,   2.0000000e+00,0.0,-0.27777778,0.21428571,28.0,False,1232,1.0
87158234,27,1.0,bin/iaps/203.jpg,5,246,bin/iaps/214.jpg,2,778,bin/iaps/184.jpg,8,512,bin/iaps/184.jpg,0.0,1.0,0.0,-0.0109952,0.77777778,6.7948236,   7.5726013e+00,   6.8194788e+00,8.0,   3.0000000e+00,-0.022222222,0.44444444,0.49206349,21.0,True,1445,2.0
87158234,28,2.0,bin/iaps/203.jpg,5,778,bin/iaps/214.jpg,2,246,bin/iaps/184.jpg,8,512,bin/iaps/184.jpg,0.0,1.0,0.0,-0.011238965,0.8,6.9013008,   7.7013008e+00,   6.9254174e+00,8.0,   3.0000000e+00,-2.220446e-16,0.46666667,0.51428571,21.0,True,1549,2.0
87158234,29,3.0,bin/iaps/203.jpg,5,778,bin/iaps/214.jpg,2,512,bin/iaps/184.jpg,8,246,bin/iaps/184.jpg,0.0,1.0,0.0,-0.01132072,0.81818182,6.9889423,   7.8071241e+00,   7.0124212e+00,8.0,   3.0000000e+00,0.018181818,0.48484848,0.53246753,21.0,True,767,1.0
87158234,30,4.0,bin/iaps/203.jpg,5,512,bin/iaps/214.jpg,2,778,bin/iaps/184.jpg,8,246,bin/iaps/184.jpg,0.0,1.0,0.0,-0.011311855,0.83333333,7.0618083,   7.8951416e+00,   7.0846288e+00,8.0,   3.0000000e+00,0.033333333,0.5,0.54761905,21.0,True,976,1.0
87158234,31,5.0,bin/iaps/203.jpg,5,246,bin/iaps/214.jpg,2,512,bin/iaps/184.jpg,8,778,bin/iaps/184.jpg,0.0,1.0,0.0,-0.011253786,0.84615385,7.1228843,   7.9690382e+00,   7.1450657e+00,8.0,   3.0000000e+00,0.046153846,0.51282051,0.56043956,21.0,False,1243,3.0
87158234,32,6.0,bin/iaps/203.jpg,5,246,bin/iaps/214.jpg,2,512,bin/iaps/184.jpg,8,778,bin/iaps/184.jpg,0.0,1.0,0.0,-0.013265082,0.78571429,6.7736411,   7.5593553e+00,   6.8016854e+00,8.0,   3.0000000e+00,-0.014285714,0.45238095,0.5,21.0,True,684,3.0
87158234,33,0.0,bin/iaps/203.jpg,5,778,bin/iaps/181.jpg,2,512,bin/iaps/184.jpg,8,246,bin/iaps/184.jpg,0.0,1.0,0.0,-0.021586828,0.8,7.1269925,   7.9269925e+00,   7.1703014e+00,2.0,   3.0000000e+00,-2.220446e-16,0.3,0.46666667,21.0,True,1064,1.0
87158234,34,1.0,bin/iaps/203.jpg,5,246,bin/iaps/181.jpg,2,512,bin/iaps/184.jpg,8,778,bin/iaps/181.jpg,1.0,0.0,0.0,0.020595644,0.5,7.215143,   7.7151430e+00,   7.2151430e+00,2.0,   1.0000000e+00,0.3,-0.3125,0.16666667,20.0,False,1374,2.0
87158234,35,2.0,bin/iaps/203.jpg,5,246,bin/iaps/181.jpg,2,778,bin/iaps/184.jpg,8,512,bin/iaps/181.jpg,1.0,0.0,0.0,0.0085380376,0.33333333,6.9785029,   7.3118362e+00,   6.9785029e+00,2.0,   1.0000000e+00,0.13333333,-0.47916667,0.0,20.0,False,856,3.0
87158234,36,3.0,bin/iaps/203.jpg,5,246,bin/iaps/181.jpg,2,512,bin/iaps/184.jpg,8,778,bin/iaps/181.jpg,1.0,0.0,0.0,0.0038686656,0.25,6.8910859,   7.1410859e+00,   6.8982445e+00,2.0,   1.0000000e+00,0.05,-0.5625,-0.083333333,20.0,False,1685,2.0
87158234,37,4.0,bin/iaps/203.jpg,5,512,bin/iaps/181.jpg,2,778,bin/iaps/184.jpg,8,246,bin/iaps/184.jpg,0.0,1.0,0.0,-0.013751646,0.8125,6.8346584,   7.6471584e+00,   6.8601161e+00,2.0,   3.0000000e+00,0.0125,0.47916667,0.6125,21.0,False,814,1.0
87158234,38,5.0,bin/iaps/203.jpg,5,512,bin/iaps/181.jpg,2,778,bin/iaps/184.jpg,8,246,bin/iaps/181.jpg,1.0,0.0,0.0,0.00099482569,0.2,6.5796398,   6.7796398e+00,   6.5930977e+00,2.0,   1.0000000e+00,1.6653345e-16,-0.56470588,-0.13333333,20.0,False,1283,3.0
87158234,39,6.0,bin/iaps/203.jpg,5,246,bin/iaps/181.jpg,2,778,bin/iaps/184.jpg,8,512,bin/iaps/181.jpg,1.0,0.0,0.0,-0.00014829584,0.16666667,6.5567593,   6.7234260e+00,   6.5716562e+00,2.0,   1.0000000e+00,-0.033333333,-0.59803922,-0.16666667,20.0,False,1053,3.0
87158234,40,0.0,bin/iaps/203.jpg,5,778,bin/iaps/181.jpg,2,512,bin/iaps/148.jpg,8,246,bin/iaps/148.jpg,1.0,0.0,0.0,0.042249427,0.5,5.6224171,   6.1224171e+00,   5.6224171e+00,8.0,   3.0000000e+00,-0.3,0.16666667,0.35714286,3.0,True,1154,1.0
87148409,1,0.0,bin/iaps/78.jpg,5,246,bin/iaps/30.jpg,2,512,bin/iaps/39.jpg,8,778,bin/iaps/39.jpg,0.0,0.0,0.0,-9.1801162e-09,0.5,6.5472319,   7.0472319e+00,   6.5472319e+00,,   3.0000000e+00,-0.3,0.0,0.0,10.0,True,1104,3.0
87148409,2,1.0,bin/iaps/78.jpg,5,246,bin/iaps/30.jpg,2,778,bin/iaps/39.jpg,8,512,bin/iaps/39.jpg,0.0,0.0,0.0,-0.012243979,0.66666667,6.9627998,   7.6294665e+00,   6.9811659e+00,,   3.0000000e+00,-0.13333333,0.16666667,0.16666667,10.0,False,923,2.0
87148409,3,2.0,bin/iaps/78.jpg,5,512,bin/iaps/30.jpg,2,246,bin/iaps/39.jpg,8,778,bin/iaps/39.jpg,0.0,0.0,0.0,-0.032298266,0.5,6.4830496,   6.9830496e+00,   6.5314970e+00,,   3.0000000e+00,-0.3,0.0,0.0,10.0,True,1007,3.0
87148409,4,3.0,bin/iaps/78.jpg,5,512,bin/iaps/30.jpg,2,246,bin/iaps/39.jpg,8,778,bin/iaps/30.jpg,0.0,0.0,0.0,0.015900407,0.5,6.7702241,   7.2702241e+00,   6.7702242e+00,,   1.0000000e+00,0.3,-0.1,0.0,8.0,True,1139,1.0
87148409,5,4.0,bin/iaps/78.jpg,5,512,bin/iaps/30.jpg,2,246,bin/iaps/39.jpg,8,778,bin/iaps/78.jpg,0.0,0.0,0.0,0.014655073,0.5,7.1365771,   7.6365771e+00,   7.1365771e+00,,   2.0000000e+00,0.0,-0.16666667,-0.1,13.0,True,1170,2.0
87148409,6,5.0,bin/iaps/78.jpg,5,778,bin/iaps/30.jpg,2,512,bin/iaps/39.jpg,8,246,bin/iaps/78.jpg,0.0,0.0,0.0,0.0041058415,0.66666667,7.3733774,   8.0400441e+00,   7.3733774e+00,,   2.0000000e+00,0.16666667,0.0,0.066666667,13.0,True,896,3.0
87148409,7,6.0,bin/iaps/78.jpg,5,246,bin/iaps/30.jpg,2,512,bin/iaps/39.jpg,8,778,bin/iaps/78.jpg,0.0,0.0,0.0,0.00053550186,0.75,7.5204615,   8.2704615e+00,   7.5238001e+00,,   2.0000000e+00,0.25,0.083333333,0.15,13.0,False,985,1.0
87148409,8,7.0,bin/iaps/78.jpg,5,778,bin/iaps/30.jpg,2,512,bin/iaps/39.jpg,8,246,bin/iaps/39.jpg,0.0,0.0,0.0,-0.0050735613,0.6,7.2329173,   7.8329173e+00,   7.2481380e+00,,   3.0000000e+00,-0.2,-0.066666667,0.0,10.0,False,758,1.0
87148409,9,0.0,bin/iaps/78.jpg,5,778,bin/iaps/211.jpg,5,246,bin/iaps/39.jpg,8,512,bin/iaps/39.jpg,0.0,0.0,1.0,-0.019331469,0.5,6.6884804,   7.1884804e+00,   6.7418815e+00,5.0,   3.0000000e+00,-0.3,-0.1,0.0,10.0,True,700,2.0
87148409,10,1.0,bin/iaps/78.jpg,5,512,bin/iaps/211.jpg,5,246,bin/iaps/39.jpg,8,778,bin/iaps/39.jpg,0.0,0.0,1.0,-0.018971727,0.57142857,6.8278074,   7.3992359e+00,   6.8777500e+00,5.0,   3.0000000e+00,-0.22857143,-0.028571429,0.071428571,10.0,True,869,3.0
87148409,11,2.0,bin/iaps/78.jpg,5,246,bin/iaps/211.jpg,5,778,bin/iaps/39.jpg,8,512,bin/iaps/211.jpg,1.0,0.0,0.0,0.027782091,0.5,6.9914861,   7.4914861e+00,   6.9914861e+00,5.0,   2.0000000e+00,0.0,-0.125,-0.1,29.0,False,819,3.0
87148409,12,3.0,bin/iaps/78.jpg,5,512,bin/iaps/211.jpg,5,246,bin/iaps/39.jpg,8,778,bin/iaps/211.jpg,1.0,0.0,0.0,0.011980062,0.33333333,6.7546015,   7.0879349e+00,   6.7546015e+00,5.0,   2.0000000e+00,-0.16666667,-0.29166667,-0.26666667,29.0,False,1067,1.0
87148409,13,4.0,bin/iaps/78.jpg,5,512,bin/iaps/211.jpg,5,246,bin/iaps/39.jpg,8,778,bin/iaps/39.jpg,0.0,1.0,0.0,-0.0075777668,0.625,6.6639322,   7.2889322e+00,   6.6768563e+00,5.0,   3.0000000e+00,-0.175,0.025,0.375,10.0,True,1154,3.0
87148409,14,5.0,bin/iaps/78.jpg,5,246,bin/iaps/211.jpg,5,512,bin/iaps/39.jpg,8,778,bin/iaps/39.jpg,0.0,1.0,0.0,-0.008173983,0.66666667,6.7923629,   7.4590295e+00,   6.8060851e+00,5.0,   3.0000000e+00,-0.13333333,0.066666667,0.41666667,10.0,True,798,3.0
87148409,15,0.0,bin/iaps/78.jpg,5,512,bin/iaps/97.jpg,2,246,bin/iaps/39.jpg,8,778,bin/iaps/39.jpg,0.0,1.0,0.0,-0.015714662,0.7,7.128011,   7.8280110e+00,   7.1657593e+00,2.0,   3.0000000e+00,-0.1,0.1,0.2,10.0,False,681,3.0
87148409,16,1.0,bin/iaps/78.jpg,5,778,bin/iaps/97.jpg,2,512,bin/iaps/39.jpg,8,246,bin/iaps/39.jpg,0.0,1.0,0.0,-0.019718423,0.63636364,6.9468522,   7.5832159e+00,   6.9949077e+00,2.0,   3.0000000e+00,-0.16363636,0.036363636,0.13636364,10.0,True,1538,1.0
87148409,17,2.0,bin/iaps/78.jpg,5,246,bin/iaps/97.jpg,2,778,bin/iaps/39.jpg,8,512,bin/iaps/97.jpg,1.0,0.0,0.0,0.026000797,0.5,7.0618964,   7.5618964e+00,   7.0618964e+00,2.0,   1.0000000e+00,0.3,-0.16666667,-0.1,16.0,False,1038,3.0
87148409,18,3.0,bin/iaps/78.jpg,5,778,bin/iaps/97.jpg,2,512,bin/iaps/39.jpg,8,246,bin/iaps/39.jpg,0.0,1.0,0.0,-0.012671584,0.66666667,6.8228472,   7.4895139e+00,   6.8477083e+00,2.0,   3.0000000e+00,-0.13333333,0.066666667,0.33333333,10.0,True,791,1.0
87148409,19,4.0,bin/iaps/78.jpg,5,778,bin/iaps/97.jpg,2,512,bin/iaps/39.jpg,8,246,bin/iaps/39.jpg,0.0,1.0,0.0,-0.012329427,0.69230769,6.898692,   7.5909997e+00,   6.9224920e+00,2.0,   3.0000000e+00,-0.10769231,0.092307692,0.35897436,10.0,True,850,1.0
87148409,20,5.0,bin/iaps/78.jpg,5,246,bin/iaps/97.jpg,2,512,bin/iaps/39.jpg,8,778,bin/iaps/39.jpg,0.0,1.0,0.0,-0.011961785,0.71428571,6.9651212,   7.6794069e+00,   6.9878753e+00,2.0,   3.0000000e+00,-0.085714286,0.11428571,0.38095238,10.0,True,709,3.0
87148409,21,6.0,bin/iaps/78.jpg,5,512,bin/iaps/97.jpg,2,246,bin/iaps/39.jpg,8,778,bin/iaps/39.jpg,0.0,1.0,0.0,-0.011588978,0.73333333,7.0234717,   7.7568050e+00,   7.0452205e+00,2.0,   3.0000000e+00,-0.066666667,0.13333333,0.4,10.0,True,1358,3.0
87148409,22,0.0,bin/iaps/78.jpg,5,246,bin/iaps/218.jpg,8,778,bin/iaps/39.jpg,8,512,bin/iaps/39.jpg,0.0,1.0,0.0,-0.014536323,0.75,7.2220674,   7.9720674e+00,   7.2550520e+00,8.0,   3.0000000e+00,-0.05,0.15,0.25,10.0,True,883,2.0
87148409,23,1.0,bin/iaps/78.jpg,5,246,bin/iaps/218.jpg,8,778,bin/iaps/39.jpg,8,512,bin/iaps/39.jpg,0.0,1.0,0.0,-0.013691876,0.76470588,7.2588738,   8.0235796e+00,   7.2895266e+00,8.0,   3.0000000e+00,-0.035294118,0.16470588,0.26470588,10.0,True,1069,2.0
87148409,24,2.0,bin/iaps/78.jpg,5,512,bin/iaps/218.jpg,8,246,bin/iaps/39.jpg,8,778,bin/iaps/218.jpg,1.0,0.0,0.0,0.015606688,0.5,7.3199077,   7.8199077e+00,   7.3199077e+00,8.0,   3.0000000e+00,-0.3,-0.27777778,-0.1,30.0,True,898,1.0
87148409,25,3.0,bin/iaps/78.jpg,5,246,bin/iaps/218.jpg,8,512,bin/iaps/39.jpg,8,778,bin/iaps/218.jpg,1.0,0.0,0.0,0.0070870828,0.66666667,7.4776316,   8.1442983e+00,   7.4776316e+00,8.0,   3.0000000e+00,-0.13333333,-0.11111111,0.066666667,30.0,True,737,2.0
87148409,26,4.0,bin/iaps/78.jpg,5,778,bin/iaps/218.jpg,8,246,bin/iaps/39.jpg,8,512,bin/iaps/39.jpg,0.0,1.0,0.0,-0.0027391548,0.77777778,7.566341,   8.3441187e+00,   7.5726698e+00,8.0,   3.0000000e+00,-0.022222222,0.027777778,0.17777778,10.0,True,1176,2.0
87148409,27,5.0,bin/iaps/78.jpg,5,246,bin/iaps/218.jpg,8,778,bin/iaps/39.jpg,8,512,bin/iaps/218.jpg,1.0,0.0,0.0,0.0034500296,0.75,7.5826487,   8.3326487e+00,   7.5826487e+00,8.0,   3.0000000e+00,-0.05,-0.039473684,0.15,30.0,True,690,3.0
87148409,28,0.0,bin/iaps/78.jpg,5,778,bin/iaps/218.jpg,8,512,bin/iaps/263.jpg,5,246,bin/iaps/263.jpg,1.0,0.0,0.0,0.0072996166,0.5,7.5025797,   8.0025797e+00,   7.5025797e+00,5.0,   2.0000000e+00,0.0,-0.3,-0.1,34.0,True,1729,1.0
87148409,29,1.0,bin/iaps/78.jpg,5,778,bin/iaps/218.jpg,8,246,bin/iaps/263.jpg,5,512,bin/iaps/263.jpg,1.0,0.0,0.0,0.0029946383,0.66666667,7.6206188,   8.2872854e+00,   7.6206188e+00,5.0,   2.0000000e+00,0.16666667,-0.13333333,0.066666667,34.0,False,1262,2.0
87148409,30,2.0,bin/iaps/78.jpg,5,246,bin/iaps/218.jpg,8,778,bin/iaps/263.jpg,5,512,bin/iaps/218.jpg,0.0,1.0,0.0,-0.00017000756,0.8,7.4832713,   8.2832713e+00,   7.4839989e+00,5.0,   3.0000000e+00,6.6613381e-16,0.2,0.3,30.0,True,1159,3.0
87148409,31,3.0,bin/iaps/78.jpg,5,512,bin/iaps/218.jpg,8,246,bin/iaps/263.jpg,5,778,bin/iaps/218.jpg,0.0,1.0,0.0,-0.0015233441,0.83333333,7.5864292,   8.4197626e+00,   7.5887294e+00,5.0,   3.0000000e+00,0.033333333,0.23333333,0.33333333,30.0,True,1848,1.0
87148409,32,4.0,bin/iaps/78.jpg,5,512,bin/iaps/218.jpg,8,246,bin/iaps/263.jpg,5,778,bin/iaps/263.jpg,1.0,0.0,0.0,0.00072381292,0.5,7.6641128,   8.1641128e+00,   7.6647608e+00,5.0,   2.0000000e+00,0.0,-0.35714286,-0.1,34.0,True,663,3.0
87148409,33,5.0,bin/iaps/78.jpg,5,512,bin/iaps/218.jpg,8,778,bin/iaps/263.jpg,5,246,bin/iaps/218.jpg,0.0,1.0,0.0,-0.00099469375,0.85714286,7.6957672,   8.5529100e+00,   7.6972592e+00,5.0,   3.0000000e+00,0.057142857,0.25714286,0.25714286,30.0,True,962,3.0
87148409,34,0.0,bin/iaps/181.jpg,5,512,bin/iaps/218.jpg,8,246,bin/iaps/263.jpg,5,778,bin/iaps/181.jpg,1.0,0.0,0.0,-0.0002255615,0.5,7.7253101,   8.2253101e+00,   7.7276067e+00,5.0,   2.0000000e+00,0.0,-0.375,-0.1,25.0,True,1236,2.0
87148409,35,1.0,bin/iaps/181.jpg,5,778,bin/iaps/218.jpg,8,246,bin/iaps/263.jpg,5,512,bin/iaps/181.jpg,1.0,0.0,0.0,0.00052533962,0.66666667,7.7685067,   8.4351734e+00,   7.7685067e+00,5.0,   2.0000000e+00,0.16666667,-0.20833333,0.066666667,25.0,True,1039,3.0
87148409,36,2.0,bin/iaps/181.jpg,5,512,bin/iaps/218.jpg,8,778,bin/iaps/263.jpg,5,246,bin/iaps/263.jpg,0.0,0.0,1.0,-0.0022975343,0.6,7.7827693,   8.3827693e+00,   7.7864056e+00,5.0,   2.0000000e+00,0.1,-0.275,-0.15,34.0,True,1531,1.0
87148409,37,3.0,bin/iaps/181.jpg,5,778,bin/iaps/218.jpg,8,512,bin/iaps/263.jpg,5,246,bin/iaps/218.jpg,0.0,1.0,0.0,0.0012033616,0.875,7.73835,   8.6133500e+00,   7.7383500e+00,8.0,   3.0000000e+00,0.075,0.125,0.20833333,30.0,True,956,2.0
87148409,38,4.0,bin/iaps/181.jpg,5,512,bin/iaps/218.jpg,8,778,bin/iaps/263.jpg,5,246,bin/iaps/218.jpg,0.0,1.0,0.0,0.0013807235,0.88888889,7.7481461,   8.6370350e+00,   7.7481461e+00,8.0,   3.0000000e+00,0.088888889,0.13888889,0.22222222,30.0,True,700,3.0
87148409,39,5.0,bin/iaps/181.jpg,5,246,bin/iaps/218.jpg,8,778,bin/iaps/263.jpg,5,512,bin/iaps/181.jpg,1.0,0.0,0.0,-0.001139137,0.75,7.7523085,   8.5023085e+00,   7.7549823e+00,5.0,   2.0000000e+00,0.25,-0.15,0.083333333,25.0,True,1316,1.0
87148409,40,0.0,bin/iaps/181.jpg,5,512,bin/iaps/218.jpg,8,778,bin/iaps/225.jpg,5,246,bin/iaps/225.jpg,1.0,0.0,0.0,-0.026487442,0.5,7.8698199,   8.3698199e+00,   7.9103173e+00,5.0,   2.0000000e+00,8.8817842e-16,-0.4,-0.3,31.0,True,1114,1.0
87148409,1,0.0,bin/iaps/105.jpg,2,778,bin/iaps/168.jpg,8,246,bin/iaps/7.jpg,5,512,,0.0,0.0,0.0,,,,             NaN,             NaN,,             NaN,,,,,,0,
87148409,2,1.0,bin/iaps/105.jpg,2,778,bin/iaps/168.jpg,8,246,bin/iaps/7.jpg,5,512,bin/iaps/7.jpg,1.0,0.0,0.0,-0.011989524,0.66666667,7.7145749,   8.3812415e+00,   7.7332572e+00,5.0,   2.0000000e+00,0.16666667,-0.23333333,-0.13333333,2.0,True,1212,2.0
87148409,3,2.0,bin/iaps/105.jpg,2,512,bin/iaps/168.jpg,8,246,bin/iaps/7.jpg,5,778,bin/iaps/7.jpg,1.0,0.0,0.0,-0.0050373408,0.75,7.6011902,   8.3511902e+00,   7.6104739e+00,5.0,   2.0000000e+00,0.25,-0.15,-0.05,2.0,False,822,3.0
87148409,4,3.0,bin/iaps/105.jpg,2,246,bin/iaps/168.jpg,8,778,bin/iaps/7.jpg,5,512,bin/iaps/7.jpg,1.0,0.0,0.0,-0.0039917739,0.6,7.8054964,   8.4054964e+00,   7.8115257e+00,5.0,   2.0000000e+00,0.1,-0.3,-0.2,2.0,False,755,2.0
87148409,5,4.0,bin/iaps/105.jpg,2,512,bin/iaps/168.jpg,8,778,bin/iaps/7.jpg,5,246,bin/iaps/7.jpg,1.0,0.0,0.0,-0.0017597421,0.5,7.9058306,   8.4058306e+00,   7.9093281e+00,5.0,   2.0000000e+00,8.8817842e-16,-0.4,-0.3,2.0,True,1325,1.0
87148409,6,0.0,bin/iaps/202.jpg,2,778,bin/iaps/168.jpg,8,246,bin/iaps/7.jpg,5,512,bin/iaps/202.jpg,1.0,0.0,0.0,-0.00029119099,0.5,7.7778308,   8.2778308e+00,   7.7805382e+00,2.0,   1.0000000e+00,0.3,-0.4,-0.071428571,27.0,False,999,3.0
87148409,7,1.0,bin/iaps/202.jpg,2,246,bin/iaps/168.jpg,8,512,bin/iaps/7.jpg,5,778,bin/iaps/202.jpg,1.0,0.0,0.0,0.0024883162,0.33333333,7.729561,   8.0628943e+00,   7.7295610e+00,2.0,   1.0000000e+00,0.13333333,-0.56666667,-0.23809524,27.0,False,684,1.0
87148409,8,2.0,bin/iaps/202.jpg,2,778,bin/iaps/168.jpg,8,512,bin/iaps/7.jpg,5,246,bin/iaps/7.jpg,0.0,0.0,1.0,0.00079848152,0.57142857,7.702958,   8.2743866e+00,   7.7063136e+00,5.0,   2.0000000e+00,0.071428571,-0.32857143,0.32142857,2.0,True,1024,1.0
87148409,9,3.0,bin/iaps/202.jpg,2,778,bin/iaps/168.jpg,8,246,bin/iaps/7.jpg,5,512,bin/iaps/7.jpg,0.0,0.0,1.0,0.00056893313,0.625,7.7604827,   8.3854827e+00,   7.7633077e+00,5.0,   2.0000000e+00,0.125,-0.275,0.375,2.0,False,885,2.0
87148409,10,4.0,bin/iaps/202.jpg,2,246,bin/iaps/168.jpg,8,778,bin/iaps/7.jpg,5,512,bin/iaps/202.jpg,1.0,0.0,0.0,0.0046851298,0.25,7.678572,   7.9285720e+00,   7.6785720e+00,2.0,   1.0000000e+00,0.05,-0.65,-0.30555556,27.0,False,771,1.0
87148409,11,5.0,bin/iaps/202.jpg,2,778,bin/iaps/168.jpg,8,512,bin/iaps/7.jpg,5,246,bin/iaps/7.jpg,0.0,0.0,1.0,-6.60506e-05,0.55555556,7.659476,   8.2150315e+00,   7.6650674e+00,5.0,   2.0000000e+00,0.055555556,-0.34444444,0.35555556,2.0,True,1031,1.0
87148409,12,6.0,bin/iaps/202.jpg,2,778,bin/iaps/168.jpg,8,246,bin/iaps/7.jpg,5,512,bin/iaps/7.jpg,0.0,0.0,1.0,-0.00039759987,0.6,7.7079101,   8.3079101e+00,   7.7136314e+00,5.0,   2.0000000e+00,0.1,-0.3,0.4,2.0,False,519,2.0
87148409,13,7.0,bin/iaps/202.jpg,2,512,bin/iaps/168.jpg,8,246,bin/iaps/7.jpg,5,778,bin/iaps/7.jpg,0.0,0.0,1.0,-0.00017311198,0.54545455,7.6376569,   8.1831115e+00,   7.6435330e+00,5.0,   2.0000000e+00,0.045454545,-0.35454545,0.34545455,2.0,True,727,3.0
87148409,14,0.0,bin/iaps/202.jpg,2,246,bin/iaps/16.jpg,8,778,bin/iaps/7.jpg,5,512,bin/iaps/202.jpg,0.0,0.0,1.0,-0.015822983,0.2,6.1979851,   6.3979851e+00,   6.2591571e+00,8.0,   1.0000000e+00,1.6653345e-16,-0.38333333,-0.3,27.0,True,1082,1.0
87148409,15,1.0,bin/iaps/202.jpg,2,246,bin/iaps/16.jpg,8,778,bin/iaps/7.jpg,5,512,bin/iaps/16.jpg,1.0,0.0,0.0,0.047166074,0.5,6.3736245,   6.8736245e+00,   6.3736245e+00,8.0,   3.0000000e+00,-0.3,-0.083333333,0.16666667,5.0,True,1624,3.0
87148409,16,2.0,bin/iaps/202.jpg,2,246,bin/iaps/16.jpg,8,778,bin/iaps/7.jpg,5,512,bin/iaps/7.jpg,0.0,1.0,0.0,-0.014404932,0.58333333,6.7996954,   7.3830287e+00,   6.8342163e+00,8.0,   2.0000000e+00,0.083333333,-0.083333333,0.25,2.0,True,1013,2.0
87148409,17,3.0,bin/iaps/202.jpg,2,512,bin/iaps/16.jpg,8,246,bin/iaps/7.jpg,5,778,bin/iaps/16.jpg,1.0,0.0,0.0,0.019306665,0.66666667,6.9060322,   7.5726988e+00,   6.9060322e+00,8.0,   3.0000000e+00,-0.13333333,0.051282051,0.33333333,5.0,False,1321,1.0
87148409,18,4.0,bin/iaps/202.jpg,2,246,bin/iaps/16.jpg,8,778,bin/iaps/7.jpg,5,512,bin/iaps/16.jpg,1.0,0.0,0.0,0.012733865,0.5,6.4013104,   6.9013104e+00,   6.4013104e+00,8.0,   3.0000000e+00,-0.3,-0.11538462,0.16666667,5.0,True,634,3.0
87148409,19,5.0,bin/iaps/202.jpg,2,778,bin/iaps/16.jpg,8,512,bin/iaps/7.jpg,5,246,,0.0,0.0,0.0,,,,             NaN,             NaN,,             NaN,,,,,,0,
87148409,20,0.0,bin/iaps/31.jpg,8,246,bin/iaps/16.jpg,8,778,bin/iaps/7.jpg,5,512,bin/iaps/31.jpg,1.0,0.0,0.0,0.03073103,0.5,6.930051,   7.4300510e+00,   6.9300510e+00,8.0,   3.0000000e+00,-0.3,-0.11538462,-0.1,9.0,False,970,1.0
87148409,21,1.0,bin/iaps/31.jpg,8,512,bin/iaps/16.jpg,8,778,bin/iaps/7.jpg,5,246,bin/iaps/16.jpg,0.0,0.0,1.0,0.00015241206,0.6,6.6675818,   7.2675818e+00,   6.6815119e+00,8.0,   3.0000000e+00,-0.2,-0.015384615,0.26666667,5.0,True,1234,3.0
87148409,22,2.0,bin/iaps/31.jpg,8,778,bin/iaps/16.jpg,8,512,bin/iaps/7.jpg,5,246,bin/iaps/7.jpg,0.0,0.0,1.0,-0.010546282,0.61538462,6.8535962,   7.4689809e+00,   6.8773114e+00,5.0,   2.0000000e+00,0.11538462,-0.051282051,0.28205128,2.0,False,843,1.0
87148409,23,3.0,bin/iaps/31.jpg,8,778,bin/iaps/16.jpg,8,246,bin/iaps/7.jpg,5,512,bin/iaps/31.jpg,1.0,0.0,0.0,0.014725377,0.33333333,6.7618388,   7.0951721e+00,   6.7618388e+00,8.0,   3.0000000e+00,-0.46666667,-0.33333333,-0.23809524,9.0,False,964,3.0
87148409,24,4.0,bin/iaps/31.jpg,8,778,bin/iaps/16.jpg,8,512,bin/iaps/7.jpg,5,246,bin/iaps/16.jpg,0.0,1.0,0.0,8.238536e-05,0.66666667,6.6766898,   7.3433564e+00,   6.6848084e+00,8.0,   3.0000000e+00,-0.13333333,0.095238095,0.41666667,5.0,False,630,2.0
87148409,25,5.0,bin/iaps/31.jpg,8,246,bin/iaps/16.jpg,8,778,bin/iaps/7.jpg,5,512,bin/iaps/31.jpg,1.0,0.0,0.0,0.010726091,0.25,6.3473721,   6.5973721e+00,   6.3473721e+00,8.0,   3.0000000e+00,-0.55,-0.32142857,-0.32142857,9.0,False,908,1.0
87148409,26,0.0,bin/iaps/31.jpg,8,246,bin/iaps/16.jpg,8,512,bin/iaps/245.jpg,2,778,bin/iaps/245.jpg,1.0,0.0,0.0,0.042874488,0.5,6.2667883,   6.7667883e+00,   6.2667883e+00,2.0,   1.0000000e+00,0.3,-0.071428571,0.3,33.0,False,1399,3.0
87148409,27,1.0,bin/iaps/31.jpg,8,246,bin/iaps/16.jpg,8,512,bin/iaps/245.jpg,2,778,bin/iaps/245.jpg,1.0,0.0,0.0,0.018024077,0.33333333,5.8315097,   6.1648430e+00,   5.8315097e+00,2.0,   1.0000000e+00,0.13333333,-0.23809524,0.13333333,33.0,True,1147,3.0
87148409,28,2.0,bin/iaps/31.jpg,8,246,bin/iaps/16.jpg,8,778,bin/iaps/245.jpg,2,512,bin/iaps/245.jpg,1.0,0.0,0.0,0.0095356194,0.5,6.198681,   6.6986810e+00,   6.1986810e+00,2.0,   1.0000000e+00,0.3,-0.071428571,0.3,33.0,False,888,2.0
87148409,29,3.0,bin/iaps/31.jpg,8,778,bin/iaps/16.jpg,8,246,bin/iaps/245.jpg,2,512,bin/iaps/16.jpg,0.0,1.0,0.0,-0.0053034911,0.57142857,5.9225774,   6.4940060e+00,   5.9317240e+00,2.0,   3.0000000e+00,-0.22857143,0.17142857,0.37142857,5.0,True,1123,1.0
87148409,30,4.0,bin/iaps/31.jpg,8,778,bin/iaps/16.jpg,8,246,bin/iaps/245.jpg,2,512,bin/iaps/16.jpg,0.0,1.0,0.0,-0.0070597932,0.625,6.1211195,   6.7461195e+00,   6.1326130e+00,2.0,   3.0000000e+00,-0.175,0.225,0.425,5.0,True,680,1.0
87148409,31,5.0,bin/iaps/31.jpg,8,778,bin/iaps/16.jpg,8,512,bin/iaps/245.jpg,2,246,bin/iaps/16.jpg,0.0,1.0,0.0,-0.008188655,0.66666667,6.2864574,   6.9531241e+00,   6.2993877e+00,2.0,   3.0000000e+00,-0.13333333,0.26666667,0.46666667,5.0,True,656,2.0
87148409,32,6.0,bin/iaps/31.jpg,8,246,bin/iaps/16.jpg,8,778,bin/iaps/245.jpg,2,512,bin/iaps/16.jpg,0.0,1.0,0.0,-0.0089111121,0.7,6.4249547,   7.1249547e+00,   6.4387434e+00,2.0,   3.0000000e+00,-0.1,0.3,0.5,5.0,True,687,3.0
87148409,33,0.0,bin/iaps/31.jpg,8,778,bin/iaps/16.jpg,8,246,bin/iaps/204.jpg,5,512,bin/iaps/204.jpg,1.0,0.0,0.0,0.031454721,0.5,6.8119041,   7.3119041e+00,   6.8119041e+00,5.0,   2.0000000e+00,0.0,-0.22727273,0.3,28.0,False,1172,2.0
87148409,34,1.0,bin/iaps/31.jpg,8,778,bin/iaps/16.jpg,8,512,bin/iaps/204.jpg,5,246,bin/iaps/204.jpg,1.0,0.0,0.0,0.014959937,0.33333333,6.4743483,   6.8076816e+00,   6.4743483e+00,5.0,   2.0000000e+00,-0.16666667,-0.39393939,0.13333333,28.0,True,682,1.0
87148409,35,2.0,bin/iaps/31.jpg,8,778,bin/iaps/16.jpg,8,512,bin/iaps/204.jpg,5,246,bin/iaps/16.jpg,0.0,1.0,0.0,-0.010704272,0.72727273,6.7432081,   7.4704808e+00,   6.7623539e+00,5.0,   3.0000000e+00,-0.072727273,0.22727273,0.52727273,5.0,True,1366,2.0
87148409,36,3.0,bin/iaps/31.jpg,8,246,bin/iaps/16.jpg,8,778,bin/iaps/204.jpg,5,512,bin/iaps/16.jpg,0.0,1.0,0.0,-0.010772268,0.75,6.8333319,   7.5833319e+00,   6.8521495e+00,5.0,   3.0000000e+00,-0.05,0.25,0.55,5.0,True,441,3.0
87148409,37,4.0,bin/iaps/31.jpg,8,246,bin/iaps/16.jpg,8,512,bin/iaps/204.jpg,5,778,bin/iaps/16.jpg,0.0,1.0,0.0,-0.010762874,0.76923077,6.9104027,   7.6796334e+00,   6.9288289e+00,5.0,   3.0000000e+00,-0.030769231,0.26923077,0.56923077,5.0,True,447,2.0
87148409,38,5.0,bin/iaps/31.jpg,8,512,bin/iaps/16.jpg,8,778,bin/iaps/204.jpg,5,246,bin/iaps/16.jpg,0.0,1.0,0.0,-0.010707904,0.78571429,6.9766896,   7.7624039e+00,   6.9947012e+00,5.0,   3.0000000e+00,-0.014285714,0.28571429,0.58571429,5.0,True,839,3.0
87148409,39,6.0,bin/iaps/31.jpg,8,246,bin/iaps/16.jpg,8,512,bin/iaps/204.jpg,5,778,bin/iaps/16.jpg,0.0,1.0,0.0,-0.010627471,0.8,7.0339808,   7.8339808e+00,   7.0515781e+00,5.0,   3.0000000e+00,-2.220446e-16,0.3,0.6,5.0,True,802,2.0
87148409,40,0.0,bin/iaps/31.jpg,8,512,bin/iaps/137.jpg,5,246,bin/iaps/204.jpg,5,778,bin/iaps/204.jpg,0.0,1.0,0.0,-0.014119728,0.5,6.0171708,   6.5171708e+00,   6.0717853e+00,5.0,   2.0000000e+00,0.0,0.0,0.3,28.0,True,876,3.0
87148409,1,0.0,bin/iaps/114.jpg,8,246,bin/iaps/229.jpg,5,512,bin/iaps/13.jpg,2,778,bin/iaps/13.jpg,0.0,0.0,1.0,-9.1801162e-09,0.5,6.5472319,   7.0472319e+00,   6.5472319e+00,5.0,   1.0000000e+00,0.3,0.0,0.0,4.0,True,1152,3.0
87148409,2,1.0,bin/iaps/114.jpg,8,778,bin/iaps/229.jpg,5,246,bin/iaps/13.jpg,2,512,,0.0,0.0,0.0,,,,             NaN,             NaN,,             NaN,,,,,,0,
87148409,3,2.0,bin/iaps/114.jpg,8,246,bin/iaps/229.jpg,5,778,bin/iaps/13.jpg,2,512,bin/iaps/13.jpg,0.0,1.0,0.0,-0.012243979,0.66666667,6.9627998,   7.6294665e+00,   6.9811659e+00,5.0,   1.0000000e+00,0.46666667,0.16666667,0.16666667,4.0,False,1787,2.0
87148409,4,3.0,bin/iaps/114.jpg,8,778,bin/iaps/229.jpg,5,512,bin/iaps/13.jpg,2,246,bin/iaps/114.jpg,0.0,1.0,0.0,0.016149183,0.5,6.531497,   7.0314970e+00,   6.5314970e+00,5.0,   3.0000000e+00,-0.3,0.0,0.0,19.0,True,1588,3.0
87148409,5,4.0,bin/iaps/114.jpg,8,512,bin/iaps/229.jpg,5,778,bin/iaps/13.jpg,2,246,bin/iaps/229.jpg,1.0,0.0,0.0,0.017705278,0.5,6.9685057,   7.4685057e+00,   6.9685057e+00,5.0,   2.0000000e+00,0.0,-0.16666667,0.0,32.0,False,1282,3.0
87148409,6,5.0,bin/iaps/114.jpg,8,778,bin/iaps/229.jpg,5,512,bin/iaps/13.jpg,2,246,bin/iaps/229.jpg,1.0,0.0,0.0,-0.00083628188,0.33333333,6.7093564,   7.0426898e+00,   6.7191460e+00,5.0,   2.0000000e+00,-0.16666667,-0.33333333,-0.16666667,32.0,False,767,2.0
87148409,7,6.0,bin/iaps/114.jpg,8,512,bin/iaps/229.jpg,5,246,bin/iaps/13.jpg,2,778,bin/iaps/13.jpg,0.0,0.0,1.0,-0.004561388,0.5,6.6261813,   7.1261813e+00,   6.6433293e+00,5.0,   1.0000000e+00,0.3,-0.16666667,0.25,4.0,False,1068,3.0
87148409,8,0.0,bin/iaps/114.jpg,8,778,bin/iaps/229.jpg,5,246,bin/iaps/40.jpg,2,512,bin/iaps/40.jpg,1.0,0.0,0.0,0.022614625,0.5,6.6823027,   7.1823027e+00,   6.6823027e+00,2.0,   1.0000000e+00,0.3,-0.16666667,0.25,11.0,False,870,2.0
87148409,9,1.0,bin/iaps/114.jpg,8,512,bin/iaps/229.jpg,5,246,bin/iaps/40.jpg,2,778,bin/iaps/114.jpg,0.0,1.0,0.0,0.010855609,0.66666667,6.334544,   7.0012107e+00,   6.3345440e+00,2.0,   3.0000000e+00,-0.13333333,0.33333333,0.41666667,19.0,False,936,2.0
87148409,10,2.0,bin/iaps/114.jpg,8,512,bin/iaps/229.jpg,5,246,bin/iaps/40.jpg,2,778,bin/iaps/40.jpg,1.0,0.0,0.0,0.01002309,0.33333333,5.6586349,   5.9919682e+00,   5.6586349e+00,2.0,   1.0000000e+00,0.13333333,-0.16666667,0.083333333,11.0,True,987,3.0
87148409,11,3.0,bin/iaps/114.jpg,8,246,bin/iaps/229.jpg,5,778,bin/iaps/40.jpg,2,512,bin/iaps/40.jpg,1.0,0.0,0.0,0.0018361115,0.5,6.042101,   6.5421010e+00,   6.0421010e+00,2.0,   1.0000000e+00,0.3,0.0,0.25,11.0,False,944,2.0
87148409,12,4.0,bin/iaps/114.jpg,8,512,bin/iaps/229.jpg,5,246,bin/iaps/40.jpg,2,778,bin/iaps/40.jpg,1.0,0.0,0.0,-0.0053546977,0.4,5.7612302,   6.1612302e+00,   5.7723642e+00,2.0,   1.0000000e+00,0.2,-0.1,0.15,11.0,False,610,3.0
87148409,13,5.0,bin/iaps/114.jpg,8,778,bin/iaps/229.jpg,5,246,bin/iaps/40.jpg,2,512,bin/iaps/40.jpg,1.0,0.0,0.0,-0.0094068449,0.33333333,5.6091186,   5.9424519e+00,   5.6264547e+00,2.0,   1.0000000e+00,0.13333333,-0.16666667,0.083333333,11.0,False,1146,2.0
87148409,14,6.0,bin/iaps/114.jpg,8,512,bin/iaps/229.jpg,5,246,bin/iaps/40.jpg,2,778,bin/iaps/229.jpg,0.0,0.0,1.0,0.0025695566,0.25,5.5325314,   5.7825314e+00,   5.5390580e+00,2.0,   2.0000000e+00,-0.25,-0.25,-0.035714286,32.0,True,1233,1.0
87148409,15,0.0,bin/iaps/189.jpg,2,246,bin/iaps/229.jpg,5,512,bin/iaps/40.jpg,2,778,bin/iaps/229.jpg,0.0,1.0,0.0,-0.021173885,0.4,5.808794,   6.2087940e+00,   5.8811284e+00,5.0,   2.0000000e+00,-0.1,-0.1,0.11428571,32.0,True,505,2.0
87148409,16,1.0,bin/iaps/189.jpg,2,246,bin/iaps/229.jpg,5,778,bin/iaps/40.jpg,2,512,bin/iaps/40.jpg,0.0,0.0,1.0,-0.025927423,0.28571429,6.0474571,   6.3331714e+00,   6.1223897e+00,2.0,   1.0000000e+00,0.085714286,-0.21428571,-0.21428571,11.0,False,1188,2.0
